thisRow.t,notes,folder,feature,morph_level,response_key,rt,participant,session,date,expName,psychopyVersion,frameRate,
,,app,9,9,left,2.8186437000003934,farzaneh,001,2025-04-19_08h45.15.478,task1,2021.2.3,60.07676609182293,
,,app,9,59,right,1.2853779999995822,farzaneh,001,2025-04-19_08h45.15.478,task1,2021.2.3,60.07676609182293,
,,app,9,9,left,1.973812799999905,farzaneh,001,2025-04-19_08h45.15.478,task1,2021.2.3,60.07676609182293,
,,app,9,49,right,1.1763746000005995,farzaneh,001,2025-04-19_08h45.15.478,task1,2021.2.3,60.07676609182293,
,,app,9,9,left,0.7648932000001878,farzaneh,001,2025-04-19_08h45.15.478,task1,2021.2.3,60.07676609182293,
,,app,9,19,left,0.6061448000000382,farzaneh,001,2025-04-19_08h45.15.478,task1,2021.2.3,60.07676609182293,
,,app,9,79,right,1.08081619999939,farzaneh,001,2025-04-19_08h45.15.478,task1,2021.2.3,60.07676609182293,
,,app,9,49,right,0.867008000000169,farzaneh,001,2025-04-19_08h45.15.478,task1,2021.2.3,60.07676609182293,
,,app,9,39,right,2.959451199999421,farzaneh,001,2025-04-19_08h45.15.478,task1,2021.2.3,60.07676609182293,
,,app,9,69,right,0.8399008000005779,farzaneh,001,2025-04-19_08h45.15.478,task1,2021.2.3,60.07676609182293,
,,app,9,29,left,1.4624880000001212,farzaneh,001,2025-04-19_08h45.15.478,task1,2021.2.3,60.07676609182293,
,,app,9,59,right,0.7810116000000562,farzaneh,001,2025-04-19_08h45.15.478,task1,2021.2.3,60.07676609182293,
,,app,9,59,right,0.8058055999999851,farzaneh,001,2025-04-19_08h45.15.478,task1,2021.2.3,60.07676609182293,
,,app,9,89,right,0.2469664999998713,farzaneh,001,2025-04-19_08h45.15.478,task1,2021.2.3,60.07676609182293,
,,app,9,89,right,0.2243960000005245,farzaneh,001,2025-04-19_08h45.15.478,task1,2021.2.3,60.07676609182293,
,,app,9,99,right,1.308253600000171,farzaneh,001,2025-04-19_08h45.15.478,task1,2021.2.3,60.07676609182293,
,,app,9,99,right,0.17076820000056614,farzaneh,001,2025-04-19_08h45.15.478,task1,2021.2.3,60.07676609182293,
,,app,9,69,right,0.79176439999992,farzaneh,001,2025-04-19_08h45.15.478,task1,2021.2.3,60.07676609182293,
,,app,9,69,right,0.6887704999999187,farzaneh,001,2025-04-19_08h45.15.478,task1,2021.2.3,60.07676609182293,
,,app,9,19,left,1.1873521999996228,farzaneh,001,2025-04-19_08h45.15.478,task1,2021.2.3,60.07676609182293,
,,app,9,69,right,0.8152749000000767,farzaneh,001,2025-04-19_08h45.15.478,task1,2021.2.3,60.07676609182293,
,,app,9,29,left,1.0885274999991452,farzaneh,001,2025-04-19_08h45.15.478,task1,2021.2.3,60.07676609182293,
,,app,9,39,left,0.7087697999995726,farzaneh,001,2025-04-19_08h45.15.478,task1,2021.2.3,60.07676609182293,
,,app,9,99,right,0.6004445999997188,farzaneh,001,2025-04-19_08h45.15.478,task1,2021.2.3,60.07676609182293,
,,app,9,29,left,1.3151843000005101,farzaneh,001,2025-04-19_08h45.15.478,task1,2021.2.3,60.07676609182293,
,,app,9,99,right,0.9347815000000992,farzaneh,001,2025-04-19_08h45.15.478,task1,2021.2.3,60.07676609182293,
,,app,9,69,right,0.5958989999999176,farzaneh,001,2025-04-19_08h45.15.478,task1,2021.2.3,60.07676609182293,
,,app,9,59,right,0.6667681999997512,farzaneh,001,2025-04-19_08h45.15.478,task1,2021.2.3,60.07676609182293,
,,app,9,79,right,0.5418342000002667,farzaneh,001,2025-04-19_08h45.15.478,task1,2021.2.3,60.07676609182293,
,,app,9,69,right,0.7064101999994818,farzaneh,001,2025-04-19_08h45.15.478,task1,2021.2.3,60.07676609182293,
,,app,9,79,right,0.8893846999999369,farzaneh,001,2025-04-19_08h45.15.478,task1,2021.2.3,60.07676609182293,
,,app,9,39,left,0.46461600000020553,farzaneh,001,2025-04-19_08h45.15.478,task1,2021.2.3,60.07676609182293,
,,app,9,29,left,0.7787396000003355,farzaneh,001,2025-04-19_08h45.15.478,task1,2021.2.3,60.07676609182293,
,,app,9,19,left,0.5815923000000112,farzaneh,001,2025-04-19_08h45.15.478,task1,2021.2.3,60.07676609182293,
,,app,9,79,right,0.6239495999998326,farzaneh,001,2025-04-19_08h45.15.478,task1,2021.2.3,60.07676609182293,
,,app,9,39,left,0.8072554999998829,farzaneh,001,2025-04-19_08h45.15.478,task1,2021.2.3,60.07676609182293,
,,app,9,49,left,1.546880500000043,farzaneh,001,2025-04-19_08h45.15.478,task1,2021.2.3,60.07676609182293,
,,app,9,99,right,0.6970023000003494,farzaneh,001,2025-04-19_08h45.15.478,task1,2021.2.3,60.07676609182293,
,,app,9,9,left,0.5489137000004121,farzaneh,001,2025-04-19_08h45.15.478,task1,2021.2.3,60.07676609182293,
,,app,9,9,left,0.4675345000005109,farzaneh,001,2025-04-19_08h45.15.478,task1,2021.2.3,60.07676609182293,
,,app,9,19,left,0.444727399999465,farzaneh,001,2025-04-19_08h45.15.478,task1,2021.2.3,60.07676609182293,
,,app,9,99,right,0.6142354000003252,farzaneh,001,2025-04-19_08h45.15.478,task1,2021.2.3,60.07676609182293,
,,app,9,59,right,0.5848900999999387,farzaneh,001,2025-04-19_08h45.15.478,task1,2021.2.3,60.07676609182293,
,,app,9,59,right,0.5103509000000486,farzaneh,001,2025-04-19_08h45.15.478,task1,2021.2.3,60.07676609182293,
,,app,9,69,right,0.6355023999994955,farzaneh,001,2025-04-19_08h45.15.478,task1,2021.2.3,60.07676609182293,
,,app,9,69,right,0.24916159999975207,farzaneh,001,2025-04-19_08h45.15.478,task1,2021.2.3,60.07676609182293,
,,app,9,9,left,0.4424951000000874,farzaneh,001,2025-04-19_08h45.15.478,task1,2021.2.3,60.07676609182293,
,,app,9,29,left,0.03587429999970482,farzaneh,001,2025-04-19_08h45.15.478,task1,2021.2.3,60.07676609182293,
,,app,9,99,right,0.594108100000085,farzaneh,001,2025-04-19_08h45.15.478,task1,2021.2.3,60.07676609182293,
,,app,9,29,left,0.41718670000045677,farzaneh,001,2025-04-19_08h45.15.478,task1,2021.2.3,60.07676609182293,
,,app,9,29,left,0.5883279999998194,farzaneh,001,2025-04-19_08h45.15.478,task1,2021.2.3,60.07676609182293,
,,app,9,59,right,0.5498921999997037,farzaneh,001,2025-04-19_08h45.15.478,task1,2021.2.3,60.07676609182293,
,,app,9,39,right,2.9719531000000643,farzaneh,001,2025-04-19_08h45.15.478,task1,2021.2.3,60.07676609182293,
,,app,9,59,left,0.6266107999999804,farzaneh,001,2025-04-19_08h45.15.478,task1,2021.2.3,60.07676609182293,
,,app,9,89,right,1.392487500000243,farzaneh,001,2025-04-19_08h45.15.478,task1,2021.2.3,60.07676609182293,
,,app,9,39,left,0.8266299999995681,farzaneh,001,2025-04-19_08h45.15.478,task1,2021.2.3,60.07676609182293,
,,app,9,79,right,0.6732448000002478,farzaneh,001,2025-04-19_08h45.15.478,task1,2021.2.3,60.07676609182293,
,,app,9,49,left,0.6373886000001221,farzaneh,001,2025-04-19_08h45.15.478,task1,2021.2.3,60.07676609182293,
,,app,9,99,right,0.5681806000002325,farzaneh,001,2025-04-19_08h45.15.478,task1,2021.2.3,60.07676609182293,
,,app,9,39,left,0.7754161000002568,farzaneh,001,2025-04-19_08h45.15.478,task1,2021.2.3,60.07676609182293,
,,app,9,99,right,0.47369089999938296,farzaneh,001,2025-04-19_08h45.15.478,task1,2021.2.3,60.07676609182293,
,,app,9,79,right,0.4729511999994429,farzaneh,001,2025-04-19_08h45.15.478,task1,2021.2.3,60.07676609182293,
,,app,9,19,left,0.45228040000074543,farzaneh,001,2025-04-19_08h45.15.478,task1,2021.2.3,60.07676609182293,
,,app,9,49,left,0.6489867000000231,farzaneh,001,2025-04-19_08h45.15.478,task1,2021.2.3,60.07676609182293,
,,app,9,29,left,0.5943007999994734,farzaneh,001,2025-04-19_08h45.15.478,task1,2021.2.3,60.07676609182293,
,,app,9,49,right,1.0450581999994029,farzaneh,001,2025-04-19_08h45.15.478,task1,2021.2.3,60.07676609182293,
,,app,9,79,right,0.6963825000002544,farzaneh,001,2025-04-19_08h45.15.478,task1,2021.2.3,60.07676609182293,
,,app,9,9,left,0.4792976999997336,farzaneh,001,2025-04-19_08h45.15.478,task1,2021.2.3,60.07676609182293,
,,app,9,79,right,0.4726098000001002,farzaneh,001,2025-04-19_08h45.15.478,task1,2021.2.3,60.07676609182293,
,,app,9,49,right,1.096088299999792,farzaneh,001,2025-04-19_08h45.15.478,task1,2021.2.3,60.07676609182293,
,,app,9,69,left,0.616909599999417,farzaneh,001,2025-04-19_08h45.15.478,task1,2021.2.3,60.07676609182293,
,,app,9,19,left,0.5151803999997355,farzaneh,001,2025-04-19_08h45.15.478,task1,2021.2.3,60.07676609182293,
,,app,9,79,right,0.5363517999994656,farzaneh,001,2025-04-19_08h45.15.478,task1,2021.2.3,60.07676609182293,
,,app,9,9,left,0.832972900000641,farzaneh,001,2025-04-19_08h45.15.478,task1,2021.2.3,60.07676609182293,
,,app,9,49,right,1.1840750000001208,farzaneh,001,2025-04-19_08h45.15.478,task1,2021.2.3,60.07676609182293,
,,app,9,39,left,0.8328931999994893,farzaneh,001,2025-04-19_08h45.15.478,task1,2021.2.3,60.07676609182293,
,,app,9,49,right,0.6411354000001666,farzaneh,001,2025-04-19_08h45.15.478,task1,2021.2.3,60.07676609182293,
,,app,9,9,left,0.446876500000144,farzaneh,001,2025-04-19_08h45.15.478,task1,2021.2.3,60.07676609182293,
,,app,9,99,right,0.5008300999998028,farzaneh,001,2025-04-19_08h45.15.478,task1,2021.2.3,60.07676609182293,
,,app,9,39,left,2.037968799999362,farzaneh,001,2025-04-19_08h45.15.478,task1,2021.2.3,60.07676609182293,
,,app,9,59,left,0.8506735999999364,farzaneh,001,2025-04-19_08h45.15.478,task1,2021.2.3,60.07676609182293,
,,app,9,9,left,0.841813899999579,farzaneh,001,2025-04-19_08h45.15.478,task1,2021.2.3,60.07676609182293,
,,app,9,19,left,0.6352063999993334,farzaneh,001,2025-04-19_08h45.15.478,task1,2021.2.3,60.07676609182293,
,,app,9,19,left,0.48174139999991894,farzaneh,001,2025-04-19_08h45.15.478,task1,2021.2.3,60.07676609182293,
,,app,9,89,right,0.4540852000000086,farzaneh,001,2025-04-19_08h45.15.478,task1,2021.2.3,60.07676609182293,
,,app,9,89,right,0.6444848999999522,farzaneh,001,2025-04-19_08h45.15.478,task1,2021.2.3,60.07676609182293,
,,app,9,39,right,0.4952978000001167,farzaneh,001,2025-04-19_08h45.15.478,task1,2021.2.3,60.07676609182293,
,,app,9,79,right,0.37764549999974406,farzaneh,001,2025-04-19_08h45.15.478,task1,2021.2.3,60.07676609182293,
,,app,9,89,right,0.5803113000001758,farzaneh,001,2025-04-19_08h45.15.478,task1,2021.2.3,60.07676609182293,
,,app,9,89,right,0.578130500000043,farzaneh,001,2025-04-19_08h45.15.478,task1,2021.2.3,60.07676609182293,
,,app,9,49,right,0.4615193999998155,farzaneh,001,2025-04-19_08h45.15.478,task1,2021.2.3,60.07676609182293,
,,app,9,89,right,0.4972717000000557,farzaneh,001,2025-04-19_08h45.15.478,task1,2021.2.3,60.07676609182293,
,,app,9,69,right,0.760130499999832,farzaneh,001,2025-04-19_08h45.15.478,task1,2021.2.3,60.07676609182293,
,,app,9,19,left,0.6912979999997333,farzaneh,001,2025-04-19_08h45.15.478,task1,2021.2.3,60.07676609182293,
,,app,9,29,left,0.09457320000001346,farzaneh,001,2025-04-19_08h45.15.478,task1,2021.2.3,60.07676609182293,
,,app,9,19,left,0.09610810000049241,farzaneh,001,2025-04-19_08h45.15.478,task1,2021.2.3,60.07676609182293,
,,app,9,89,right,0.577954000000318,farzaneh,001,2025-04-19_08h45.15.478,task1,2021.2.3,60.07676609182293,
,,app,9,89,right,0.6122040999998717,farzaneh,001,2025-04-19_08h45.15.478,task1,2021.2.3,60.07676609182293,
,,app,9,59,right,0.4479217999996763,farzaneh,001,2025-04-19_08h45.15.478,task1,2021.2.3,60.07676609182293,
,,app,9,29,left,0.3759349000001748,farzaneh,001,2025-04-19_08h45.15.478,task1,2021.2.3,60.07676609182293,
,,app,19,59,left,4.8480255000004036,farzaneh,001,2025-04-19_08h45.15.478,task1,2021.2.3,60.07676609182293,
,,app,19,79,right,1.5749736999996458,farzaneh,001,2025-04-19_08h45.15.478,task1,2021.2.3,60.07676609182293,
,,app,19,69,right,0.6950479999995878,farzaneh,001,2025-04-19_08h45.15.478,task1,2021.2.3,60.07676609182293,
,,app,19,39,left,1.502292000000125,farzaneh,001,2025-04-19_08h45.15.478,task1,2021.2.3,60.07676609182293,
,,app,19,19,left,2.433920099999341,farzaneh,001,2025-04-19_08h45.15.478,task1,2021.2.3,60.07676609182293,
,,app,19,9,left,1.0608185000000958,farzaneh,001,2025-04-19_08h45.15.478,task1,2021.2.3,60.07676609182293,
,,app,19,89,right,0.5005455999998958,farzaneh,001,2025-04-19_08h45.15.478,task1,2021.2.3,60.07676609182293,
,,app,19,19,left,0.32855990000007296,farzaneh,001,2025-04-19_08h45.15.478,task1,2021.2.3,60.07676609182293,
,,app,19,49,right,0.57429620000039,farzaneh,001,2025-04-19_08h45.15.478,task1,2021.2.3,60.07676609182293,
,,app,19,99,right,0.619126900000083,farzaneh,001,2025-04-19_08h45.15.478,task1,2021.2.3,60.07676609182293,
,,app,19,39,left,0.8396841000003405,farzaneh,001,2025-04-19_08h45.15.478,task1,2021.2.3,60.07676609182293,
,,app,19,39,left,0.7875781000002462,farzaneh,001,2025-04-19_08h45.15.478,task1,2021.2.3,60.07676609182293,
,,app,19,79,right,1.0436254000005647,farzaneh,001,2025-04-19_08h45.15.478,task1,2021.2.3,60.07676609182293,
,,app,19,79,right,0.5669307999996818,farzaneh,001,2025-04-19_08h45.15.478,task1,2021.2.3,60.07676609182293,
,,app,19,19,left,0.2681695999999647,farzaneh,001,2025-04-19_08h45.15.478,task1,2021.2.3,60.07676609182293,
,,app,19,49,left,0.6512414999997418,farzaneh,001,2025-04-19_08h45.15.478,task1,2021.2.3,60.07676609182293,
,,app,19,99,right,0.5777580000003582,farzaneh,001,2025-04-19_08h45.15.478,task1,2021.2.3,60.07676609182293,
,,app,19,99,right,0.5909324000003835,farzaneh,001,2025-04-19_08h45.15.478,task1,2021.2.3,60.07676609182293,
,,app,19,79,right,0.9998162000001685,farzaneh,001,2025-04-19_08h45.15.478,task1,2021.2.3,60.07676609182293,
,,app,19,39,left,0.25878740000007383,farzaneh,001,2025-04-19_08h45.15.478,task1,2021.2.3,60.07676609182293,
,,app,19,99,right,0.53005260000009,farzaneh,001,2025-04-19_08h45.15.478,task1,2021.2.3,60.07676609182293,
,,app,19,59,right,0.8224753000004057,farzaneh,001,2025-04-19_08h45.15.478,task1,2021.2.3,60.07676609182293,
,,app,19,19,left,0.26441049999993993,farzaneh,001,2025-04-19_08h45.15.478,task1,2021.2.3,60.07676609182293,
,,app,19,69,right,0.4695561999997153,farzaneh,001,2025-04-19_08h45.15.478,task1,2021.2.3,60.07676609182293,
,,app,19,19,left,0.19945019999977376,farzaneh,001,2025-04-19_08h45.15.478,task1,2021.2.3,60.07676609182293,
,,app,19,69,right,0.26065209999978833,farzaneh,001,2025-04-19_08h45.15.478,task1,2021.2.3,60.07676609182293,
,,app,19,69,right,0.2486188000002585,farzaneh,001,2025-04-19_08h45.15.478,task1,2021.2.3,60.07676609182293,
,,app,19,9,left,0.20689820000006875,farzaneh,001,2025-04-19_08h45.15.478,task1,2021.2.3,60.07676609182293,
,,app,19,59,right,0.720429800000602,farzaneh,001,2025-04-19_08h45.15.478,task1,2021.2.3,60.07676609182293,
,,app,19,89,right,0.19532650000019203,farzaneh,001,2025-04-19_08h45.15.478,task1,2021.2.3,60.07676609182293,
,,app,19,59,right,0.17742199999975128,farzaneh,001,2025-04-19_08h45.15.478,task1,2021.2.3,60.07676609182293,
,,app,19,29,left,0.17846869999993942,farzaneh,001,2025-04-19_08h45.15.478,task1,2021.2.3,60.07676609182293,
,,app,19,29,left,0.10195270000076562,farzaneh,001,2025-04-19_08h45.15.478,task1,2021.2.3,60.07676609182293,
,,app,19,39,left,0.13665930000024673,farzaneh,001,2025-04-19_08h45.15.478,task1,2021.2.3,60.07676609182293,
,,app,19,69,right,0.22793999999976222,farzaneh,001,2025-04-19_08h45.15.478,task1,2021.2.3,60.07676609182293,
,,app,19,69,right,0.14389070000015636,farzaneh,001,2025-04-19_08h45.15.478,task1,2021.2.3,60.07676609182293,
,,app,19,49,right,0.4364921000005779,farzaneh,001,2025-04-19_08h45.15.478,task1,2021.2.3,60.07676609182293,
,,app,19,69,right,0.439530200000263,farzaneh,001,2025-04-19_08h45.15.478,task1,2021.2.3,60.07676609182293,
,,app,19,59,right,0.14595970000027592,farzaneh,001,2025-04-19_08h45.15.478,task1,2021.2.3,60.07676609182293,
,,app,19,19,left,0.1425797000001694,farzaneh,001,2025-04-19_08h45.15.478,task1,2021.2.3,60.07676609182293,
,,app,19,19,left,0.5694484000005104,farzaneh,001,2025-04-19_08h45.15.478,task1,2021.2.3,60.07676609182293,
,,app,19,49,right,0.4606008999999176,farzaneh,001,2025-04-19_08h45.15.478,task1,2021.2.3,60.07676609182293,
,,app,19,59,right,0.26209019999987504,farzaneh,001,2025-04-19_08h45.15.478,task1,2021.2.3,60.07676609182293,
,,app,19,19,left,0.13862719999997353,farzaneh,001,2025-04-19_08h45.15.478,task1,2021.2.3,60.07676609182293,
,,app,19,49,left,0.13086420000036014,farzaneh,001,2025-04-19_08h45.15.478,task1,2021.2.3,60.07676609182293,
,,app,19,49,right,0.08172110000032262,farzaneh,001,2025-04-19_08h45.15.478,task1,2021.2.3,60.07676609182293,
,,app,19,29,left,0.42525990000012825,farzaneh,001,2025-04-19_08h45.15.478,task1,2021.2.3,60.07676609182293,
,,app,19,39,left,0.1769358999999895,farzaneh,001,2025-04-19_08h45.15.478,task1,2021.2.3,60.07676609182293,
,,app,19,89,right,0.0960891000004267,farzaneh,001,2025-04-19_08h45.15.478,task1,2021.2.3,60.07676609182293,
,,app,19,29,left,0.10249490000023798,farzaneh,001,2025-04-19_08h45.15.478,task1,2021.2.3,60.07676609182293,
,,app,19,59,right,0.575499800000216,farzaneh,001,2025-04-19_08h45.15.478,task1,2021.2.3,60.07676609182293,
,,app,19,89,right,0.8628678999994008,farzaneh,001,2025-04-19_08h45.15.478,task1,2021.2.3,60.07676609182293,
,,app,19,9,left,0.9301463000001604,farzaneh,001,2025-04-19_08h45.15.478,task1,2021.2.3,60.07676609182293,
,,app,19,79,right,0.5923930999997538,farzaneh,001,2025-04-19_08h45.15.478,task1,2021.2.3,60.07676609182293,
,,app,19,29,left,0.2474923999998282,farzaneh,001,2025-04-19_08h45.15.478,task1,2021.2.3,60.07676609182293,
,,app,19,99,right,0.11224709999987681,farzaneh,001,2025-04-19_08h45.15.478,task1,2021.2.3,60.07676609182293,
,,app,19,39,left,0.19962399999985792,farzaneh,001,2025-04-19_08h45.15.478,task1,2021.2.3,60.07676609182293,
,,app,19,59,right,0.004371300000457268,farzaneh,001,2025-04-19_08h45.15.478,task1,2021.2.3,60.07676609182293,
,,app,19,29,left,0.2839567999999417,farzaneh,001,2025-04-19_08h45.15.478,task1,2021.2.3,60.07676609182293,
,,app,19,49,right,0.22386939999978495,farzaneh,001,2025-04-19_08h45.15.478,task1,2021.2.3,60.07676609182293,
,,app,19,99,right,0.47833669999999984,farzaneh,001,2025-04-19_08h45.15.478,task1,2021.2.3,60.07676609182293,
,,app,19,29,left,0.1259517999997115,farzaneh,001,2025-04-19_08h45.15.478,task1,2021.2.3,60.07676609182293,
,,app,19,49,left,0.2849077999999281,farzaneh,001,2025-04-19_08h45.15.478,task1,2021.2.3,60.07676609182293,
,,app,19,69,left,1.0940727999995943,farzaneh,001,2025-04-19_08h45.15.478,task1,2021.2.3,60.07676609182293,
,,app,19,29,left,0.24226010000074893,farzaneh,001,2025-04-19_08h45.15.478,task1,2021.2.3,60.07676609182293,
,,app,19,69,right,0.6305395999997927,farzaneh,001,2025-04-19_08h45.15.478,task1,2021.2.3,60.07676609182293,
,,app,19,89,right,0.15392100000008213,farzaneh,001,2025-04-19_08h45.15.478,task1,2021.2.3,60.07676609182293,
,,app,19,79,right,0.21988799999962794,farzaneh,001,2025-04-19_08h45.15.478,task1,2021.2.3,60.07676609182293,
,,app,19,89,right,0.18968409999979485,farzaneh,001,2025-04-19_08h45.15.478,task1,2021.2.3,60.07676609182293,
,,app,19,99,right,0.16577940000024682,farzaneh,001,2025-04-19_08h45.15.478,task1,2021.2.3,60.07676609182293,
,,app,19,9,left,0.13460659999964264,farzaneh,001,2025-04-19_08h45.15.478,task1,2021.2.3,60.07676609182293,
,,app,19,9,left,0.10927759999958653,farzaneh,001,2025-04-19_08h45.15.478,task1,2021.2.3,60.07676609182293,
,,app,19,49,left,0.21354110000083892,farzaneh,001,2025-04-19_08h45.15.478,task1,2021.2.3,60.07676609182293,
,,app,19,9,left,0.027516600000126346,farzaneh,001,2025-04-19_08h45.15.478,task1,2021.2.3,60.07676609182293,
,,app,19,29,left,0.4940702000003512,farzaneh,001,2025-04-19_08h45.15.478,task1,2021.2.3,60.07676609182293,
,,app,19,99,right,0.056754999999611755,farzaneh,001,2025-04-19_08h45.15.478,task1,2021.2.3,60.07676609182293,
,,app,19,59,right,0.4873384000002261,farzaneh,001,2025-04-19_08h45.15.478,task1,2021.2.3,60.07676609182293,
,,app,19,89,right,0.17019669999990583,farzaneh,001,2025-04-19_08h45.15.478,task1,2021.2.3,60.07676609182293,
,,app,19,9,left,0.10088039999936882,farzaneh,001,2025-04-19_08h45.15.478,task1,2021.2.3,60.07676609182293,
,,app,19,29,left,0.09799320000001899,farzaneh,001,2025-04-19_08h45.15.478,task1,2021.2.3,60.07676609182293,
,,app,19,89,right,0.16184479999992618,farzaneh,001,2025-04-19_08h45.15.478,task1,2021.2.3,60.07676609182293,
,,app,19,99,left,1.9883338000008735,farzaneh,001,2025-04-19_08h45.15.478,task1,2021.2.3,60.07676609182293,
,,app,19,39,left,0.6281288000000131,farzaneh,001,2025-04-19_08h45.15.478,task1,2021.2.3,60.07676609182293,
,,app,19,69,right,0.17567870000038965,farzaneh,001,2025-04-19_08h45.15.478,task1,2021.2.3,60.07676609182293,
,,app,19,79,left,0.5518647999997484,farzaneh,001,2025-04-19_08h45.15.478,task1,2021.2.3,60.07676609182293,
,,app,19,99,right,0.2566453999997975,farzaneh,001,2025-04-19_08h45.15.478,task1,2021.2.3,60.07676609182293,
,,app,19,59,right,0.4925686999995378,farzaneh,001,2025-04-19_08h45.15.478,task1,2021.2.3,60.07676609182293,
,,app,19,39,left,0.31380600000011327,farzaneh,001,2025-04-19_08h45.15.478,task1,2021.2.3,60.07676609182293,
,,app,19,9,left,0.050613399999747344,farzaneh,001,2025-04-19_08h45.15.478,task1,2021.2.3,60.07676609182293,
,,app,19,9,left,0.23845100000016828,farzaneh,001,2025-04-19_08h45.15.478,task1,2021.2.3,60.07676609182293,
,,app,19,19,left,0.04047489999993559,farzaneh,001,2025-04-19_08h45.15.478,task1,2021.2.3,60.07676609182293,
,,app,19,19,left,0.00011040000026696362,farzaneh,001,2025-04-19_08h45.15.478,task1,2021.2.3,60.07676609182293,
,,app,19,79,right,0.10400209999988874,farzaneh,001,2025-04-19_08h45.15.478,task1,2021.2.3,60.07676609182293,
,,app,19,39,left,0.1662116999996215,farzaneh,001,2025-04-19_08h45.15.478,task1,2021.2.3,60.07676609182293,
,,app,19,89,right,0.032893099999455444,farzaneh,001,2025-04-19_08h45.15.478,task1,2021.2.3,60.07676609182293,
,,app,19,79,right,0.10835349999979371,farzaneh,001,2025-04-19_08h45.15.478,task1,2021.2.3,60.07676609182293,
,,app,19,89,right,0.2171888000002582,farzaneh,001,2025-04-19_08h45.15.478,task1,2021.2.3,60.07676609182293,
,,app,19,49,left,0.5745073999996748,farzaneh,001,2025-04-19_08h45.15.478,task1,2021.2.3,60.07676609182293,
,,app,19,9,left,0.5416040000000066,farzaneh,001,2025-04-19_08h45.15.478,task1,2021.2.3,60.07676609182293,
,,app,19,79,right,0.12281660000007832,farzaneh,001,2025-04-19_08h45.15.478,task1,2021.2.3,60.07676609182293,
,,sha,9,29,left,1.3375773999996454,farzaneh,001,2025-04-19_08h45.15.478,task1,2021.2.3,60.07676609182293,
,,sha,9,79,right,1.6343722999999954,farzaneh,001,2025-04-19_08h45.15.478,task1,2021.2.3,60.07676609182293,
,,sha,9,69,right,0.22968020000007527,farzaneh,001,2025-04-19_08h45.15.478,task1,2021.2.3,60.07676609182293,
,,sha,9,29,right,0.24927909999951225,farzaneh,001,2025-04-19_08h45.15.478,task1,2021.2.3,60.07676609182293,
,,sha,9,99,right,0.7745005999995556,farzaneh,001,2025-04-19_08h45.15.478,task1,2021.2.3,60.07676609182293,
,,sha,9,9,right,0.7080930000001899,farzaneh,001,2025-04-19_08h45.15.478,task1,2021.2.3,60.07676609182293,
,,sha,9,99,right,0.5133254000002125,farzaneh,001,2025-04-19_08h45.15.478,task1,2021.2.3,60.07676609182293,
,,sha,9,19,left,0.14718600000014703,farzaneh,001,2025-04-19_08h45.15.478,task1,2021.2.3,60.07676609182293,
,,sha,9,89,right,0.34224580000045535,farzaneh,001,2025-04-19_08h45.15.478,task1,2021.2.3,60.07676609182293,
,,sha,9,49,left,0.1905866999995851,farzaneh,001,2025-04-19_08h45.15.478,task1,2021.2.3,60.07676609182293,
,,sha,9,19,right,1.0019433999996181,farzaneh,001,2025-04-19_08h45.15.478,task1,2021.2.3,60.07676609182293,
,,sha,9,39,left,0.49593259999983275,farzaneh,001,2025-04-19_08h45.15.478,task1,2021.2.3,60.07676609182293,
,,sha,9,89,right,1.2193732000005184,farzaneh,001,2025-04-19_08h45.15.478,task1,2021.2.3,60.07676609182293,
,,sha,9,99,right,0.16756489999988844,farzaneh,001,2025-04-19_08h45.15.478,task1,2021.2.3,60.07676609182293,
,,sha,9,79,right,0.5654612999996971,farzaneh,001,2025-04-19_08h45.15.478,task1,2021.2.3,60.07676609182293,
,,sha,9,19,left,0.14017950000015844,farzaneh,001,2025-04-19_08h45.15.478,task1,2021.2.3,60.07676609182293,
,,sha,9,39,left,0.16080969999984518,farzaneh,001,2025-04-19_08h45.15.478,task1,2021.2.3,60.07676609182293,
,,sha,9,89,right,0.1007699000001594,farzaneh,001,2025-04-19_08h45.15.478,task1,2021.2.3,60.07676609182293,
,,sha,9,9,left,0.6346446000006836,farzaneh,001,2025-04-19_08h45.15.478,task1,2021.2.3,60.07676609182293,
,,sha,9,9,right,0.08851760000015929,farzaneh,001,2025-04-19_08h45.15.478,task1,2021.2.3,60.07676609182293,
,,sha,9,39,left,0.4673923999998806,farzaneh,001,2025-04-19_08h45.15.478,task1,2021.2.3,60.07676609182293,
,,sha,9,49,right,0.48670729999957985,farzaneh,001,2025-04-19_08h45.15.478,task1,2021.2.3,60.07676609182293,
,,sha,9,9,left,0.23106790000019828,farzaneh,001,2025-04-19_08h45.15.478,task1,2021.2.3,60.07676609182293,
,,sha,9,39,right,0.07149850000041624,farzaneh,001,2025-04-19_08h45.15.478,task1,2021.2.3,60.07676609182293,
,,sha,9,59,left,0.1773721999998088,farzaneh,001,2025-04-19_08h45.15.478,task1,2021.2.3,60.07676609182293,
,,sha,9,99,right,0.36968030000025465,farzaneh,001,2025-04-19_08h45.15.478,task1,2021.2.3,60.07676609182293,
,,sha,9,59,right,0.6254697000003944,farzaneh,001,2025-04-19_08h45.15.478,task1,2021.2.3,60.07676609182293,
,,sha,9,39,left,0.5203782999997202,farzaneh,001,2025-04-19_08h45.15.478,task1,2021.2.3,60.07676609182293,
,,sha,9,99,right,0.1800069999999323,farzaneh,001,2025-04-19_08h45.15.478,task1,2021.2.3,60.07676609182293,
,,sha,9,49,left,0.21328299999913725,farzaneh,001,2025-04-19_08h45.15.478,task1,2021.2.3,60.07676609182293,
,,sha,9,69,right,0.09392980000029638,farzaneh,001,2025-04-19_08h45.15.478,task1,2021.2.3,60.07676609182293,
,,sha,9,29,left,0.18100130000038916,farzaneh,001,2025-04-19_08h45.15.478,task1,2021.2.3,60.07676609182293,
,,sha,9,69,right,0.13538400000015827,farzaneh,001,2025-04-19_08h45.15.478,task1,2021.2.3,60.07676609182293,
,,sha,9,39,left,0.26771800000005896,farzaneh,001,2025-04-19_08h45.15.478,task1,2021.2.3,60.07676609182293,
,,sha,9,49,right,1.8123177999996187,farzaneh,001,2025-04-19_08h45.15.478,task1,2021.2.3,60.07676609182293,
,,sha,9,49,left,1.9274226999996245,farzaneh,001,2025-04-19_08h45.15.478,task1,2021.2.3,60.07676609182293,
,,sha,9,89,right,0.7963326999997662,farzaneh,001,2025-04-19_08h45.15.478,task1,2021.2.3,60.07676609182293,
,,sha,9,59,right,0.7795804999996108,farzaneh,001,2025-04-19_08h45.15.478,task1,2021.2.3,60.07676609182293,
,,sha,9,79,right,0.6578083999993396,farzaneh,001,2025-04-19_08h45.15.478,task1,2021.2.3,60.07676609182293,
,,sha,9,39,left,0.25290810000024067,farzaneh,001,2025-04-19_08h45.15.478,task1,2021.2.3,60.07676609182293,
,,sha,9,49,left,0.06639530000029481,farzaneh,001,2025-04-19_08h45.15.478,task1,2021.2.3,60.07676609182293,
,,sha,9,89,right,0.06842299999971146,farzaneh,001,2025-04-19_08h45.15.478,task1,2021.2.3,60.07676609182293,
,,sha,9,39,left,0.229687300000478,farzaneh,001,2025-04-19_08h45.15.478,task1,2021.2.3,60.07676609182293,
,,sha,9,19,left,0.260584700000436,farzaneh,001,2025-04-19_08h45.15.478,task1,2021.2.3,60.07676609182293,
,,sha,9,69,right,0.28355139999985113,farzaneh,001,2025-04-19_08h45.15.478,task1,2021.2.3,60.07676609182293,
,,sha,9,79,right,0.08000270000047749,farzaneh,001,2025-04-19_08h45.15.478,task1,2021.2.3,60.07676609182293,
,,sha,9,59,right,0.09119360000022425,farzaneh,001,2025-04-19_08h45.15.478,task1,2021.2.3,60.07676609182293,
,,sha,9,39,left,0.22030610000001616,farzaneh,001,2025-04-19_08h45.15.478,task1,2021.2.3,60.07676609182293,
,,sha,9,99,right,0.21083619999990333,farzaneh,001,2025-04-19_08h45.15.478,task1,2021.2.3,60.07676609182293,
,,sha,9,49,left,0.11491920000025857,farzaneh,001,2025-04-19_08h45.15.478,task1,2021.2.3,60.07676609182293,
,,sha,9,89,right,0.12565649999942252,farzaneh,001,2025-04-19_08h45.15.478,task1,2021.2.3,60.07676609182293,
,,sha,9,59,right,1.3870796999999584,farzaneh,001,2025-04-19_08h45.15.478,task1,2021.2.3,60.07676609182293,
,,sha,9,9,left,0.16844190000028902,farzaneh,001,2025-04-19_08h45.15.478,task1,2021.2.3,60.07676609182293,
,,sha,9,79,right,0.298407600000246,farzaneh,001,2025-04-19_08h45.15.478,task1,2021.2.3,60.07676609182293,
,,sha,9,99,right,0.346082000000024,farzaneh,001,2025-04-19_08h45.15.478,task1,2021.2.3,60.07676609182293,
,,sha,9,9,left,0.059296899999935704,farzaneh,001,2025-04-19_08h45.15.478,task1,2021.2.3,60.07676609182293,
,,sha,9,9,right,0.06664579999960552,farzaneh,001,2025-04-19_08h45.15.478,task1,2021.2.3,60.07676609182293,
,,sha,9,29,left,0.3502427000003081,farzaneh,001,2025-04-19_08h45.15.478,task1,2021.2.3,60.07676609182293,
,,sha,9,29,left,1.485194999999294,farzaneh,001,2025-04-19_08h45.15.478,task1,2021.2.3,60.07676609182293,
,,sha,9,39,left,0.49082129999987956,farzaneh,001,2025-04-19_08h45.15.478,task1,2021.2.3,60.07676609182293,
,,sha,9,79,right,0.10871769999994285,farzaneh,001,2025-04-19_08h45.15.478,task1,2021.2.3,60.07676609182293,
,,sha,9,19,left,0.22860149999996793,farzaneh,001,2025-04-19_08h45.15.478,task1,2021.2.3,60.07676609182293,
,,sha,9,49,left,0.7086729000002379,farzaneh,001,2025-04-19_08h45.15.478,task1,2021.2.3,60.07676609182293,
,,sha,9,59,right,0.1106590999997934,farzaneh,001,2025-04-19_08h45.15.478,task1,2021.2.3,60.07676609182293,
,,sha,9,89,right,1.3801638999993884,farzaneh,001,2025-04-19_08h45.15.478,task1,2021.2.3,60.07676609182293,
,,sha,9,69,right,0.18439110000053915,farzaneh,001,2025-04-19_08h45.15.478,task1,2021.2.3,60.07676609182293,
,,sha,9,59,right,0.015825100000256498,farzaneh,001,2025-04-19_08h45.15.478,task1,2021.2.3,60.07676609182293,
,,sha,9,69,right,1.5381434000000809,farzaneh,001,2025-04-19_08h45.15.478,task1,2021.2.3,60.07676609182293,
,,sha,9,99,right,0.11679749999984779,farzaneh,001,2025-04-19_08h45.15.478,task1,2021.2.3,60.07676609182293,
,,sha,9,19,left,0.05871320000005653,farzaneh,001,2025-04-19_08h45.15.478,task1,2021.2.3,60.07676609182293,
,,sha,9,29,left,0.28630969999994704,farzaneh,001,2025-04-19_08h45.15.478,task1,2021.2.3,60.07676609182293,
,,sha,9,59,right,0.3621302999999898,farzaneh,001,2025-04-19_08h45.15.478,task1,2021.2.3,60.07676609182293,
,,sha,9,29,left,0.16085410000050615,farzaneh,001,2025-04-19_08h45.15.478,task1,2021.2.3,60.07676609182293,
,,sha,9,69,left,0.32663919999959035,farzaneh,001,2025-04-19_08h45.15.478,task1,2021.2.3,60.07676609182293,
,,sha,9,69,right,0.234864999999445,farzaneh,001,2025-04-19_08h45.15.478,task1,2021.2.3,60.07676609182293,
,,sha,9,79,right,0.041841399999611895,farzaneh,001,2025-04-19_08h45.15.478,task1,2021.2.3,60.07676609182293,
,,sha,9,79,right,0.0663974999997663,farzaneh,001,2025-04-19_08h45.15.478,task1,2021.2.3,60.07676609182293,
,,sha,9,29,left,0.13162569999985863,farzaneh,001,2025-04-19_08h45.15.478,task1,2021.2.3,60.07676609182293,
,,sha,9,59,right,0.39268620000075316,farzaneh,001,2025-04-19_08h45.15.478,task1,2021.2.3,60.07676609182293,
,,sha,9,79,right,0.03997759999947448,farzaneh,001,2025-04-19_08h45.15.478,task1,2021.2.3,60.07676609182293,
,,sha,9,9,left,0.14929819999997562,farzaneh,001,2025-04-19_08h45.15.478,task1,2021.2.3,60.07676609182293,
,,sha,9,9,left,0.1381427000005715,farzaneh,001,2025-04-19_08h45.15.478,task1,2021.2.3,60.07676609182293,
,,sha,9,89,right,0.6663255000003119,farzaneh,001,2025-04-19_08h45.15.478,task1,2021.2.3,60.07676609182293,
,,sha,9,79,right,0.04996209999990242,farzaneh,001,2025-04-19_08h45.15.478,task1,2021.2.3,60.07676609182293,
,,sha,9,19,left,0.20360690000052273,farzaneh,001,2025-04-19_08h45.15.478,task1,2021.2.3,60.07676609182293,
,,sha,9,19,right,0.07196850000036648,farzaneh,001,2025-04-19_08h45.15.478,task1,2021.2.3,60.07676609182293,
,,sha,9,69,right,0.3465182999998433,farzaneh,001,2025-04-19_08h45.15.478,task1,2021.2.3,60.07676609182293,
,,sha,9,69,left,0.07262659999923926,farzaneh,001,2025-04-19_08h45.15.478,task1,2021.2.3,60.07676609182293,
,,sha,9,29,right,0.1539800999998988,farzaneh,001,2025-04-19_08h45.15.478,task1,2021.2.3,60.07676609182293,
,,sha,9,89,right,0.04924860000028275,farzaneh,001,2025-04-19_08h45.15.478,task1,2021.2.3,60.07676609182293,
,,sha,9,19,left,0.1662887000002229,farzaneh,001,2025-04-19_08h45.15.478,task1,2021.2.3,60.07676609182293,
,,sha,9,99,right,0.1755288999993354,farzaneh,001,2025-04-19_08h45.15.478,task1,2021.2.3,60.07676609182293,
,,sha,9,49,right,0.06259599999975762,farzaneh,001,2025-04-19_08h45.15.478,task1,2021.2.3,60.07676609182293,
,,sha,9,59,left,0.1035779999992883,farzaneh,001,2025-04-19_08h45.15.478,task1,2021.2.3,60.07676609182293,
,,sha,9,9,right,1.136551700000382,farzaneh,001,2025-04-19_08h45.15.478,task1,2021.2.3,60.07676609182293,
,,sha,9,29,left,1.4195731999998316,farzaneh,001,2025-04-19_08h45.15.478,task1,2021.2.3,60.07676609182293,
,,sha,9,99,right,0.07195289999981469,farzaneh,001,2025-04-19_08h45.15.478,task1,2021.2.3,60.07676609182293,
,,sha,9,89,right,0.04157460000078572,farzaneh,001,2025-04-19_08h45.15.478,task1,2021.2.3,60.07676609182293,
,,sha,9,19,left,0.15356449999944743,farzaneh,001,2025-04-19_08h45.15.478,task1,2021.2.3,60.07676609182293,
,,sha,9,49,left,1.4598578000004636,farzaneh,001,2025-04-19_08h45.15.478,task1,2021.2.3,60.07676609182293,
,,sha,19,49,left,1.7721198999997796,farzaneh,001,2025-04-19_08h45.15.478,task1,2021.2.3,60.07676609182293,
,,sha,19,99,right,0.7396736999999121,farzaneh,001,2025-04-19_08h45.15.478,task1,2021.2.3,60.07676609182293,
,,sha,19,29,left,0.07616529999995691,farzaneh,001,2025-04-19_08h45.15.478,task1,2021.2.3,60.07676609182293,
,,sha,19,39,left,0.37089150000065274,farzaneh,001,2025-04-19_08h45.15.478,task1,2021.2.3,60.07676609182293,
,,sha,19,39,left,0.04908380000051693,farzaneh,001,2025-04-19_08h45.15.478,task1,2021.2.3,60.07676609182293,
,,sha,19,19,left,0.04888109999956214,farzaneh,001,2025-04-19_08h45.15.478,task1,2021.2.3,60.07676609182293,
,,sha,19,9,left,0.09634899999946356,farzaneh,001,2025-04-19_08h45.15.478,task1,2021.2.3,60.07676609182293,
,,sha,19,59,left,0.9995625000001382,farzaneh,001,2025-04-19_08h45.15.478,task1,2021.2.3,60.07676609182293,
,,sha,19,29,left,0.06605099999978847,farzaneh,001,2025-04-19_08h45.15.478,task1,2021.2.3,60.07676609182293,
,,sha,19,99,right,0.038957200000368175,farzaneh,001,2025-04-19_08h45.15.478,task1,2021.2.3,60.07676609182293,
,,sha,19,79,right,0.02678939999987051,farzaneh,001,2025-04-19_08h45.15.478,task1,2021.2.3,60.07676609182293,
,,sha,19,29,left,0.09773339999992459,farzaneh,001,2025-04-19_08h45.15.478,task1,2021.2.3,60.07676609182293,
,,sha,19,29,left,0.2093008000001646,farzaneh,001,2025-04-19_08h45.15.478,task1,2021.2.3,60.07676609182293,
,,sha,19,39,left,0.011771100000260049,farzaneh,001,2025-04-19_08h45.15.478,task1,2021.2.3,60.07676609182293,
,,sha,19,59,right,0.6180198000001837,farzaneh,001,2025-04-19_08h45.15.478,task1,2021.2.3,60.07676609182293,
,,sha,19,59,right,0.21803949999957695,farzaneh,001,2025-04-19_08h45.15.478,task1,2021.2.3,60.07676609182293,
,,sha,19,89,right,0.15366349999931117,farzaneh,001,2025-04-19_08h45.15.478,task1,2021.2.3,60.07676609182293,
,,sha,19,89,right,0.026844099999834725,farzaneh,001,2025-04-19_08h45.15.478,task1,2021.2.3,60.07676609182293,
,,sha,19,59,right,0.013310100000126113,farzaneh,001,2025-04-19_08h45.15.478,task1,2021.2.3,60.07676609182293,
,,sha,19,59,right,0.060803000000305474,farzaneh,001,2025-04-19_08h45.15.478,task1,2021.2.3,60.07676609182293,
,,sha,19,49,right,0.017469700000219746,farzaneh,001,2025-04-19_08h45.15.478,task1,2021.2.3,60.07676609182293,
,,sha,19,69,right,0.04218550000041432,farzaneh,001,2025-04-19_08h45.15.478,task1,2021.2.3,60.07676609182293,
,,sha,19,29,left,0.5932138999996823,farzaneh,001,2025-04-19_08h45.15.478,task1,2021.2.3,60.07676609182293,
,,sha,19,89,right,0.15866900000037276,farzaneh,001,2025-04-19_08h45.15.478,task1,2021.2.3,60.07676609182293,
,,sha,19,69,right,0.8034018999996988,farzaneh,001,2025-04-19_08h45.15.478,task1,2021.2.3,60.07676609182293,
,,sha,19,49,left,0.2459724999998798,farzaneh,001,2025-04-19_08h45.15.478,task1,2021.2.3,60.07676609182293,
,,sha,19,19,left,0.8358566999995674,farzaneh,001,2025-04-19_08h45.15.478,task1,2021.2.3,60.07676609182293,
,,sha,19,39,left,0.6180100000001403,farzaneh,001,2025-04-19_08h45.15.478,task1,2021.2.3,60.07676609182293,
,,sha,19,99,right,0.1289944000000105,farzaneh,001,2025-04-19_08h45.15.478,task1,2021.2.3,60.07676609182293,
,,sha,19,99,right,0.0816300999995292,farzaneh,001,2025-04-19_08h45.15.478,task1,2021.2.3,60.07676609182293,
,,sha,19,99,right,0.0331025999994381,farzaneh,001,2025-04-19_08h45.15.478,task1,2021.2.3,60.07676609182293,
,,sha,19,39,left,0.672548900000038,farzaneh,001,2025-04-19_08h45.15.478,task1,2021.2.3,60.07676609182293,
,,sha,19,9,right,0.06653660000029049,farzaneh,001,2025-04-19_08h45.15.478,task1,2021.2.3,60.07676609182293,
,,sha,19,79,right,0.31557950000023993,farzaneh,001,2025-04-19_08h45.15.478,task1,2021.2.3,60.07676609182293,
,,sha,19,39,left,0.8072518999997556,farzaneh,001,2025-04-19_08h45.15.478,task1,2021.2.3,60.07676609182293,
,,sha,19,49,left,0.3157209999999395,farzaneh,001,2025-04-19_08h45.15.478,task1,2021.2.3,60.07676609182293,
,,sha,19,99,right,0.13505889999942156,farzaneh,001,2025-04-19_08h45.15.478,task1,2021.2.3,60.07676609182293,
,,sha,19,69,right,0.24496439999984432,farzaneh,001,2025-04-19_08h45.15.478,task1,2021.2.3,60.07676609182293,
,,sha,19,69,left,0.3209569000000556,farzaneh,001,2025-04-19_08h45.15.478,task1,2021.2.3,60.07676609182293,
,,sha,19,79,right,0.0007777000000714906,farzaneh,001,2025-04-19_08h45.15.478,task1,2021.2.3,60.07676609182293,
,,sha,19,39,left,0.1848216999997021,farzaneh,001,2025-04-19_08h45.15.478,task1,2021.2.3,60.07676609182293,
,,sha,19,59,right,0.08003689999986818,farzaneh,001,2025-04-19_08h45.15.478,task1,2021.2.3,60.07676609182293,
,,sha,19,29,left,0.24150710000049003,farzaneh,001,2025-04-19_08h45.15.478,task1,2021.2.3,60.07676609182293,
,,sha,19,69,right,1.6933447999999771,farzaneh,001,2025-04-19_08h45.15.478,task1,2021.2.3,60.07676609182293,
,,sha,19,19,left,0.2704024999993635,farzaneh,001,2025-04-19_08h45.15.478,task1,2021.2.3,60.07676609182293,
,,sha,19,79,right,0.05265919999965263,farzaneh,001,2025-04-19_08h45.15.478,task1,2021.2.3,60.07676609182293,
,,sha,19,19,left,0.08125980000022537,farzaneh,001,2025-04-19_08h45.15.478,task1,2021.2.3,60.07676609182293,
,,sha,19,49,right,1.6709487999996782,farzaneh,001,2025-04-19_08h45.15.478,task1,2021.2.3,60.07676609182293,
,,sha,19,29,left,0.16770009999981994,farzaneh,001,2025-04-19_08h45.15.478,task1,2021.2.3,60.07676609182293,
,,sha,19,59,left,1.553868899999543,farzaneh,001,2025-04-19_08h45.15.478,task1,2021.2.3,60.07676609182293,
,,sha,19,49,left,0.4028533000000607,farzaneh,001,2025-04-19_08h45.15.478,task1,2021.2.3,60.07676609182293,
,,sha,19,9,left,0.15661739999995916,farzaneh,001,2025-04-19_08h45.15.478,task1,2021.2.3,60.07676609182293,
,,sha,19,9,left,0.1296013999999559,farzaneh,001,2025-04-19_08h45.15.478,task1,2021.2.3,60.07676609182293,
,,sha,19,89,right,0.2059161999995922,farzaneh,001,2025-04-19_08h45.15.478,task1,2021.2.3,60.07676609182293,
,,sha,19,99,right,0.10721820000071602,farzaneh,001,2025-04-19_08h45.15.478,task1,2021.2.3,60.07676609182293,
,,sha,19,9,left,0.21762399999988702,farzaneh,001,2025-04-19_08h45.15.478,task1,2021.2.3,60.07676609182293,
,,sha,19,9,left,0.2188639999994848,farzaneh,001,2025-04-19_08h45.15.478,task1,2021.2.3,60.07676609182293,
,,sha,19,89,right,0.20964419999927486,farzaneh,001,2025-04-19_08h45.15.478,task1,2021.2.3,60.07676609182293,
,,sha,19,19,left,0.21180550000008225,farzaneh,001,2025-04-19_08h45.15.478,task1,2021.2.3,60.07676609182293,
,,sha,19,59,right,0.6484707999998136,farzaneh,001,2025-04-19_08h45.15.478,task1,2021.2.3,60.07676609182293,
,,sha,19,29,left,0.30230759999994916,farzaneh,001,2025-04-19_08h45.15.478,task1,2021.2.3,60.07676609182293,
,,sha,19,39,left,0.2773916999994981,farzaneh,001,2025-04-19_08h45.15.478,task1,2021.2.3,60.07676609182293,
,,sha,19,9,left,0.20735960000001796,farzaneh,001,2025-04-19_08h45.15.478,task1,2021.2.3,60.07676609182293,
,,sha,19,29,left,0.1632212000004074,farzaneh,001,2025-04-19_08h45.15.478,task1,2021.2.3,60.07676609182293,
,,sha,19,19,left,0.11630830000012793,farzaneh,001,2025-04-19_08h45.15.478,task1,2021.2.3,60.07676609182293,
,,sha,19,19,left,0.14795609999964654,farzaneh,001,2025-04-19_08h45.15.478,task1,2021.2.3,60.07676609182293,
,,sha,19,89,right,0.08358690000022762,farzaneh,001,2025-04-19_08h45.15.478,task1,2021.2.3,60.07676609182293,
,,sha,19,59,right,0.16816560000006575,farzaneh,001,2025-04-19_08h45.15.478,task1,2021.2.3,60.07676609182293,
,,sha,19,19,left,0.38195120000000315,farzaneh,001,2025-04-19_08h45.15.478,task1,2021.2.3,60.07676609182293,
,,sha,19,29,left,0.26278499999989435,farzaneh,001,2025-04-19_08h45.15.478,task1,2021.2.3,60.07676609182293,
,,sha,19,9,left,0.13748080000004848,farzaneh,001,2025-04-19_08h45.15.478,task1,2021.2.3,60.07676609182293,
,,sha,19,49,left,0.09117490000062389,farzaneh,001,2025-04-19_08h45.15.478,task1,2021.2.3,60.07676609182293,
,,sha,19,69,right,0.3942760999998427,farzaneh,001,2025-04-19_08h45.15.478,task1,2021.2.3,60.07676609182293,
,,sha,19,99,right,0.13770149999982095,farzaneh,001,2025-04-19_08h45.15.478,task1,2021.2.3,60.07676609182293,
,,sha,19,89,right,0.09468160000051284,farzaneh,001,2025-04-19_08h45.15.478,task1,2021.2.3,60.07676609182293,
,,sha,19,69,right,0.1954187000001184,farzaneh,001,2025-04-19_08h45.15.478,task1,2021.2.3,60.07676609182293,
,,sha,19,89,right,0.19306169999981648,farzaneh,001,2025-04-19_08h45.15.478,task1,2021.2.3,60.07676609182293,
,,sha,19,69,right,0.1992662000002383,farzaneh,001,2025-04-19_08h45.15.478,task1,2021.2.3,60.07676609182293,
,,sha,19,89,right,0.2264407000002393,farzaneh,001,2025-04-19_08h45.15.478,task1,2021.2.3,60.07676609182293,
,,sha,19,79,right,0.16243889999987005,farzaneh,001,2025-04-19_08h45.15.478,task1,2021.2.3,60.07676609182293,
,,sha,19,49,right,0.12849220000043715,farzaneh,001,2025-04-19_08h45.15.478,task1,2021.2.3,60.07676609182293,
,,sha,19,89,right,0.13900159999957395,farzaneh,001,2025-04-19_08h45.15.478,task1,2021.2.3,60.07676609182293,
,,sha,19,79,right,0.03880369999933464,farzaneh,001,2025-04-19_08h45.15.478,task1,2021.2.3,60.07676609182293,
,,sha,19,69,right,0.08567409999977826,farzaneh,001,2025-04-19_08h45.15.478,task1,2021.2.3,60.07676609182293,
,,sha,19,99,right,0.06149790000017674,farzaneh,001,2025-04-19_08h45.15.478,task1,2021.2.3,60.07676609182293,
,,sha,19,49,right,0.05825420000019221,farzaneh,001,2025-04-19_08h45.15.478,task1,2021.2.3,60.07676609182293,
,,sha,19,69,right,0.08868439999969269,farzaneh,001,2025-04-19_08h45.15.478,task1,2021.2.3,60.07676609182293,
,,sha,19,39,left,0.1336701999998695,farzaneh,001,2025-04-19_08h45.15.478,task1,2021.2.3,60.07676609182293,
,,sha,19,59,left,0.4691812999999456,farzaneh,001,2025-04-19_08h45.15.478,task1,2021.2.3,60.07676609182293,
,,sha,19,79,right,0.11976539999977831,farzaneh,001,2025-04-19_08h45.15.478,task1,2021.2.3,60.07676609182293,
,,sha,19,39,left,0.2688713999996253,farzaneh,001,2025-04-19_08h45.15.478,task1,2021.2.3,60.07676609182293,
,,sha,19,49,left,0.38304299999981595,farzaneh,001,2025-04-19_08h45.15.478,task1,2021.2.3,60.07676609182293,
,,sha,19,79,right,0.11122359999990294,farzaneh,001,2025-04-19_08h45.15.478,task1,2021.2.3,60.07676609182293,
,,sha,19,19,left,0.030971600000157196,farzaneh,001,2025-04-19_08h45.15.478,task1,2021.2.3,60.07676609182293,
,,sha,19,9,left,0.04760710000027757,farzaneh,001,2025-04-19_08h45.15.478,task1,2021.2.3,60.07676609182293,
,,sha,19,79,right,0.11566559999937454,farzaneh,001,2025-04-19_08h45.15.478,task1,2021.2.3,60.07676609182293,
,,sha,19,79,right,0.14267219999965164,farzaneh,001,2025-04-19_08h45.15.478,task1,2021.2.3,60.07676609182293,
,,sha,19,99,right,0.23408610000024055,farzaneh,001,2025-04-19_08h45.15.478,task1,2021.2.3,60.07676609182293,
,,sha,19,9,left,0.10202519999984361,farzaneh,001,2025-04-19_08h45.15.478,task1,2021.2.3,60.07676609182293,
,,sha,19,19,left,0.09487549999994371,farzaneh,001,2025-04-19_08h45.15.478,task1,2021.2.3,60.07676609182293,
