thisRow.t,notes,folder,feature,morph_level,response_key,rt,participant,session,date,expName,psychopyVersion,frameRate,
,,app,9,49,right,6.531426599999577,Mohammad,001,2025-04-19_08h22.56.355,task1,2021.2.3,60.10399192670159,
,,app,9,59,right,2.353703800000403,Mohammad,001,2025-04-19_08h22.56.355,task1,2021.2.3,60.10399192670159,
,,app,9,29,left,1.9803875999996308,Mohammad,001,2025-04-19_08h22.56.355,task1,2021.2.3,60.10399192670159,
,,app,9,29,left,2.3742886,Mohammad,001,2025-04-19_08h22.56.355,task1,2021.2.3,60.10399192670159,
,,app,9,39,left,1.9530330999996295,Mohammad,001,2025-04-19_08h22.56.355,task1,2021.2.3,60.10399192670159,
,,app,9,79,right,0.8550513000000137,Mohammad,001,2025-04-19_08h22.56.355,task1,2021.2.3,60.10399192670159,
,,app,9,29,right,1.8061495000001742,Mohammad,001,2025-04-19_08h22.56.355,task1,2021.2.3,60.10399192670159,
,,app,9,99,right,1.250867300000209,Mohammad,001,2025-04-19_08h22.56.355,task1,2021.2.3,60.10399192670159,
,,app,9,69,right,1.227936100000079,Mohammad,001,2025-04-19_08h22.56.355,task1,2021.2.3,60.10399192670159,
,,app,9,49,right,1.3109192000001713,Mohammad,001,2025-04-19_08h22.56.355,task1,2021.2.3,60.10399192670159,
,,app,9,49,right,1.5109910000001037,Mohammad,001,2025-04-19_08h22.56.355,task1,2021.2.3,60.10399192670159,
,,app,9,79,right,1.2967501000002812,Mohammad,001,2025-04-19_08h22.56.355,task1,2021.2.3,60.10399192670159,
,,app,9,59,right,1.2492615000001024,Mohammad,001,2025-04-19_08h22.56.355,task1,2021.2.3,60.10399192670159,
,,app,9,59,right,1.5392869999996037,Mohammad,001,2025-04-19_08h22.56.355,task1,2021.2.3,60.10399192670159,
,,app,9,69,right,1.3392943999997442,Mohammad,001,2025-04-19_08h22.56.355,task1,2021.2.3,60.10399192670159,
,,app,9,39,right,1.6427195999995092,Mohammad,001,2025-04-19_08h22.56.355,task1,2021.2.3,60.10399192670159,
,,app,9,99,right,1.2453254000001834,Mohammad,001,2025-04-19_08h22.56.355,task1,2021.2.3,60.10399192670159,
,,app,9,69,right,1.562479500000336,Mohammad,001,2025-04-19_08h22.56.355,task1,2021.2.3,60.10399192670159,
,,app,9,9,left,0.666527600000336,Mohammad,001,2025-04-19_08h22.56.355,task1,2021.2.3,60.10399192670159,
,,app,9,29,left,5.027664399999594,Mohammad,001,2025-04-19_08h22.56.355,task1,2021.2.3,60.10399192670159,
,,app,9,99,right,0.790623200000482,Mohammad,001,2025-04-19_08h22.56.355,task1,2021.2.3,60.10399192670159,
,,app,9,89,right,0.6984056000001146,Mohammad,001,2025-04-19_08h22.56.355,task1,2021.2.3,60.10399192670159,
,,app,9,79,right,0.6614680000002409,Mohammad,001,2025-04-19_08h22.56.355,task1,2021.2.3,60.10399192670159,
,,app,9,69,right,0.8913662000004479,Mohammad,001,2025-04-19_08h22.56.355,task1,2021.2.3,60.10399192670159,
,,app,9,39,left,4.265859200000705,Mohammad,001,2025-04-19_08h22.56.355,task1,2021.2.3,60.10399192670159,
,,app,9,89,right,0.5400005999999848,Mohammad,001,2025-04-19_08h22.56.355,task1,2021.2.3,60.10399192670159,
,,app,9,9,left,0.6848261999994065,Mohammad,001,2025-04-19_08h22.56.355,task1,2021.2.3,60.10399192670159,
,,app,9,29,left,2.0418278000006467,Mohammad,001,2025-04-19_08h22.56.355,task1,2021.2.3,60.10399192670159,
,,app,9,39,right,4.877340699999877,Mohammad,001,2025-04-19_08h22.56.355,task1,2021.2.3,60.10399192670159,
,,app,9,9,left,1.3063466000003245,Mohammad,001,2025-04-19_08h22.56.355,task1,2021.2.3,60.10399192670159,
,,app,9,89,right,0.4817072999994707,Mohammad,001,2025-04-19_08h22.56.355,task1,2021.2.3,60.10399192670159,
,,app,9,99,right,0.5475400000004811,Mohammad,001,2025-04-19_08h22.56.355,task1,2021.2.3,60.10399192670159,
,,app,9,19,left,1.0577392999994117,Mohammad,001,2025-04-19_08h22.56.355,task1,2021.2.3,60.10399192670159,
,,app,9,9,left,0.7201208000005863,Mohammad,001,2025-04-19_08h22.56.355,task1,2021.2.3,60.10399192670159,
,,app,9,89,right,0.7796035999999731,Mohammad,001,2025-04-19_08h22.56.355,task1,2021.2.3,60.10399192670159,
,,app,9,69,right,0.523319700000684,Mohammad,001,2025-04-19_08h22.56.355,task1,2021.2.3,60.10399192670159,
,,app,9,79,right,0.4295734999996057,Mohammad,001,2025-04-19_08h22.56.355,task1,2021.2.3,60.10399192670159,
,,app,9,99,right,0.6951656000001094,Mohammad,001,2025-04-19_08h22.56.355,task1,2021.2.3,60.10399192670159,
,,app,9,9,left,0.900454799999352,Mohammad,001,2025-04-19_08h22.56.355,task1,2021.2.3,60.10399192670159,
,,app,9,19,left,0.7359602000005907,Mohammad,001,2025-04-19_08h22.56.355,task1,2021.2.3,60.10399192670159,
,,app,9,29,left,0.985714100000223,Mohammad,001,2025-04-19_08h22.56.355,task1,2021.2.3,60.10399192670159,
,,app,9,69,right,0.5293674000004103,Mohammad,001,2025-04-19_08h22.56.355,task1,2021.2.3,60.10399192670159,
,,app,9,69,right,1.5847726000001785,Mohammad,001,2025-04-19_08h22.56.355,task1,2021.2.3,60.10399192670159,
,,app,9,39,left,2.8631027999999787,Mohammad,001,2025-04-19_08h22.56.355,task1,2021.2.3,60.10399192670159,
,,app,9,49,right,0.8995012000004863,Mohammad,001,2025-04-19_08h22.56.355,task1,2021.2.3,60.10399192670159,
,,app,9,59,right,0.6767718999999488,Mohammad,001,2025-04-19_08h22.56.355,task1,2021.2.3,60.10399192670159,
,,app,9,79,right,0.48422149999987596,Mohammad,001,2025-04-19_08h22.56.355,task1,2021.2.3,60.10399192670159,
,,app,9,9,left,0.9177998000004663,Mohammad,001,2025-04-19_08h22.56.355,task1,2021.2.3,60.10399192670159,
,,app,9,29,left,0.5283764000005249,Mohammad,001,2025-04-19_08h22.56.355,task1,2021.2.3,60.10399192670159,
,,app,9,69,right,0.751462399999582,Mohammad,001,2025-04-19_08h22.56.355,task1,2021.2.3,60.10399192670159,
,,app,9,99,right,0.41984229999980016,Mohammad,001,2025-04-19_08h22.56.355,task1,2021.2.3,60.10399192670159,
,,app,9,29,left,0.49288889999934327,Mohammad,001,2025-04-19_08h22.56.355,task1,2021.2.3,60.10399192670159,
,,app,9,89,right,0.7382903999996415,Mohammad,001,2025-04-19_08h22.56.355,task1,2021.2.3,60.10399192670159,
,,app,9,59,right,0.5472539000002143,Mohammad,001,2025-04-19_08h22.56.355,task1,2021.2.3,60.10399192670159,
,,app,9,89,right,0.5614039000001867,Mohammad,001,2025-04-19_08h22.56.355,task1,2021.2.3,60.10399192670159,
,,app,9,29,left,0.7274739000004047,Mohammad,001,2025-04-19_08h22.56.355,task1,2021.2.3,60.10399192670159,
,,app,9,79,right,0.4383209999996325,Mohammad,001,2025-04-19_08h22.56.355,task1,2021.2.3,60.10399192670159,
,,app,9,19,left,0.5417367999998532,Mohammad,001,2025-04-19_08h22.56.355,task1,2021.2.3,60.10399192670159,
,,app,9,39,left,0.529258700000355,Mohammad,001,2025-04-19_08h22.56.355,task1,2021.2.3,60.10399192670159,
,,app,9,99,right,0.4089397000007011,Mohammad,001,2025-04-19_08h22.56.355,task1,2021.2.3,60.10399192670159,
,,app,9,59,right,1.2278339999993477,Mohammad,001,2025-04-19_08h22.56.355,task1,2021.2.3,60.10399192670159,
,,app,9,79,right,0.39700919999995676,Mohammad,001,2025-04-19_08h22.56.355,task1,2021.2.3,60.10399192670159,
,,app,9,49,right,1.099318200000198,Mohammad,001,2025-04-19_08h22.56.355,task1,2021.2.3,60.10399192670159,
,,app,9,9,left,0.5950152000004891,Mohammad,001,2025-04-19_08h22.56.355,task1,2021.2.3,60.10399192670159,
,,app,9,19,left,0.5515622000002622,Mohammad,001,2025-04-19_08h22.56.355,task1,2021.2.3,60.10399192670159,
,,app,9,19,left,0.8685767999995733,Mohammad,001,2025-04-19_08h22.56.355,task1,2021.2.3,60.10399192670159,
,,app,9,29,left,0.5817225999999209,Mohammad,001,2025-04-19_08h22.56.355,task1,2021.2.3,60.10399192670159,
,,app,9,9,left,0.7152598000002399,Mohammad,001,2025-04-19_08h22.56.355,task1,2021.2.3,60.10399192670159,
,,app,9,9,left,0.6496459999998478,Mohammad,001,2025-04-19_08h22.56.355,task1,2021.2.3,60.10399192670159,
,,app,9,79,right,0.5301474000007147,Mohammad,001,2025-04-19_08h22.56.355,task1,2021.2.3,60.10399192670159,
,,app,9,89,right,0.800144600000749,Mohammad,001,2025-04-19_08h22.56.355,task1,2021.2.3,60.10399192670159,
,,app,9,19,left,0.6331613000002108,Mohammad,001,2025-04-19_08h22.56.355,task1,2021.2.3,60.10399192670159,
,,app,9,39,right,1.0340152999997372,Mohammad,001,2025-04-19_08h22.56.355,task1,2021.2.3,60.10399192670159,
,,app,9,99,right,0.47818550000010873,Mohammad,001,2025-04-19_08h22.56.355,task1,2021.2.3,60.10399192670159,
,,app,9,19,right,3.423715799999627,Mohammad,001,2025-04-19_08h22.56.355,task1,2021.2.3,60.10399192670159,
,,app,9,19,left,0.5920722000000751,Mohammad,001,2025-04-19_08h22.56.355,task1,2021.2.3,60.10399192670159,
,,app,9,89,right,0.476810199999818,Mohammad,001,2025-04-19_08h22.56.355,task1,2021.2.3,60.10399192670159,
,,app,9,59,right,0.3938193999993018,Mohammad,001,2025-04-19_08h22.56.355,task1,2021.2.3,60.10399192670159,
,,app,9,19,left,1.0324422000003324,Mohammad,001,2025-04-19_08h22.56.355,task1,2021.2.3,60.10399192670159,
,,app,9,39,left,1.12304899999981,Mohammad,001,2025-04-19_08h22.56.355,task1,2021.2.3,60.10399192670159,
,,app,9,9,left,0.46441909999975906,Mohammad,001,2025-04-19_08h22.56.355,task1,2021.2.3,60.10399192670159,
,,app,9,39,left,0.42296650000025693,Mohammad,001,2025-04-19_08h22.56.355,task1,2021.2.3,60.10399192670159,
,,app,9,69,right,0.44626010000047245,Mohammad,001,2025-04-19_08h22.56.355,task1,2021.2.3,60.10399192670159,
,,app,9,59,right,0.46589920000042184,Mohammad,001,2025-04-19_08h22.56.355,task1,2021.2.3,60.10399192670159,
,,app,9,99,right,0.45258780000040133,Mohammad,001,2025-04-19_08h22.56.355,task1,2021.2.3,60.10399192670159,
,,app,9,59,right,0.3498586999994586,Mohammad,001,2025-04-19_08h22.56.355,task1,2021.2.3,60.10399192670159,
,,app,9,39,right,0.7503955999991376,Mohammad,001,2025-04-19_08h22.56.355,task1,2021.2.3,60.10399192670159,
,,app,9,89,right,0.37499920000027487,Mohammad,001,2025-04-19_08h22.56.355,task1,2021.2.3,60.10399192670159,
,,app,9,19,left,0.5437677999998414,Mohammad,001,2025-04-19_08h22.56.355,task1,2021.2.3,60.10399192670159,
,,app,9,49,right,1.0985991999996259,Mohammad,001,2025-04-19_08h22.56.355,task1,2021.2.3,60.10399192670159,
,,app,9,49,right,0.44216039999992063,Mohammad,001,2025-04-19_08h22.56.355,task1,2021.2.3,60.10399192670159,
,,app,9,49,right,0.46443099999942206,Mohammad,001,2025-04-19_08h22.56.355,task1,2021.2.3,60.10399192670159,
,,app,9,49,right,0.6355243999996674,Mohammad,001,2025-04-19_08h22.56.355,task1,2021.2.3,60.10399192670159,
,,app,9,99,right,0.3775274999998146,Mohammad,001,2025-04-19_08h22.56.355,task1,2021.2.3,60.10399192670159,
,,app,9,79,right,0.38485169999967184,Mohammad,001,2025-04-19_08h22.56.355,task1,2021.2.3,60.10399192670159,
,,app,9,69,right,0.26766630000020086,Mohammad,001,2025-04-19_08h22.56.355,task1,2021.2.3,60.10399192670159,
,,app,9,89,right,0.4040079999995214,Mohammad,001,2025-04-19_08h22.56.355,task1,2021.2.3,60.10399192670159,
,,app,9,49,right,1.3852935000004436,Mohammad,001,2025-04-19_08h22.56.355,task1,2021.2.3,60.10399192670159,
,,app,9,79,right,0.36830230000032316,Mohammad,001,2025-04-19_08h22.56.355,task1,2021.2.3,60.10399192670159,
,,app,9,59,right,0.5285020999999688,Mohammad,001,2025-04-19_08h22.56.355,task1,2021.2.3,60.10399192670159,
,,app,19,59,left,1.7954226000001654,Mohammad,001,2025-04-19_08h22.56.355,task1,2021.2.3,60.10399192670159,
,,app,19,79,right,1.152534800000467,Mohammad,001,2025-04-19_08h22.56.355,task1,2021.2.3,60.10399192670159,
,,app,19,59,left,0.707956600000216,Mohammad,001,2025-04-19_08h22.56.355,task1,2021.2.3,60.10399192670159,
,,app,19,99,right,0.5984575000002224,Mohammad,001,2025-04-19_08h22.56.355,task1,2021.2.3,60.10399192670159,
,,app,19,49,left,0.8201171999999133,Mohammad,001,2025-04-19_08h22.56.355,task1,2021.2.3,60.10399192670159,
,,app,19,29,left,0.5709767999996984,Mohammad,001,2025-04-19_08h22.56.355,task1,2021.2.3,60.10399192670159,
,,app,19,49,left,0.4314380000005258,Mohammad,001,2025-04-19_08h22.56.355,task1,2021.2.3,60.10399192670159,
,,app,19,39,left,0.4407806999997774,Mohammad,001,2025-04-19_08h22.56.355,task1,2021.2.3,60.10399192670159,
,,app,19,29,left,0.4594962999999552,Mohammad,001,2025-04-19_08h22.56.355,task1,2021.2.3,60.10399192670159,
,,app,19,29,left,0.5143538000002081,Mohammad,001,2025-04-19_08h22.56.355,task1,2021.2.3,60.10399192670159,
,,app,19,59,left,0.8014124999999694,Mohammad,001,2025-04-19_08h22.56.355,task1,2021.2.3,60.10399192670159,
,,app,19,89,right,0.8323949999994511,Mohammad,001,2025-04-19_08h22.56.355,task1,2021.2.3,60.10399192670159,
,,app,19,69,left,1.625409000000218,Mohammad,001,2025-04-19_08h22.56.355,task1,2021.2.3,60.10399192670159,
,,app,19,79,left,1.7800491999996666,Mohammad,001,2025-04-19_08h22.56.355,task1,2021.2.3,60.10399192670159,
,,app,19,69,left,0.6351175999998304,Mohammad,001,2025-04-19_08h22.56.355,task1,2021.2.3,60.10399192670159,
,,app,19,79,left,0.9301659000002473,Mohammad,001,2025-04-19_08h22.56.355,task1,2021.2.3,60.10399192670159,
,,app,19,99,right,0.6649467000006553,Mohammad,001,2025-04-19_08h22.56.355,task1,2021.2.3,60.10399192670159,
,,app,19,59,right,1.083536500000264,Mohammad,001,2025-04-19_08h22.56.355,task1,2021.2.3,60.10399192670159,
,,app,19,19,left,0.6258654000002934,Mohammad,001,2025-04-19_08h22.56.355,task1,2021.2.3,60.10399192670159,
,,app,19,99,right,0.6237830000000031,Mohammad,001,2025-04-19_08h22.56.355,task1,2021.2.3,60.10399192670159,
,,app,19,99,right,0.61289780000061,Mohammad,001,2025-04-19_08h22.56.355,task1,2021.2.3,60.10399192670159,
,,app,19,89,right,0.41451599999982136,Mohammad,001,2025-04-19_08h22.56.355,task1,2021.2.3,60.10399192670159,
,,app,19,69,right,0.5374083999995491,Mohammad,001,2025-04-19_08h22.56.355,task1,2021.2.3,60.10399192670159,
,,app,19,79,right,0.4542225999994116,Mohammad,001,2025-04-19_08h22.56.355,task1,2021.2.3,60.10399192670159,
,,app,19,89,right,0.7048843000002307,Mohammad,001,2025-04-19_08h22.56.355,task1,2021.2.3,60.10399192670159,
,,app,19,59,left,0.6672508999999991,Mohammad,001,2025-04-19_08h22.56.355,task1,2021.2.3,60.10399192670159,
,,app,19,99,right,0.5056993999996848,Mohammad,001,2025-04-19_08h22.56.355,task1,2021.2.3,60.10399192670159,
,,app,19,69,right,0.5741549000003943,Mohammad,001,2025-04-19_08h22.56.355,task1,2021.2.3,60.10399192670159,
,,app,19,39,left,0.5026238999998895,Mohammad,001,2025-04-19_08h22.56.355,task1,2021.2.3,60.10399192670159,
,,app,19,29,left,0.5436535999997432,Mohammad,001,2025-04-19_08h22.56.355,task1,2021.2.3,60.10399192670159,
,,app,19,79,right,0.6443017000001419,Mohammad,001,2025-04-19_08h22.56.355,task1,2021.2.3,60.10399192670159,
,,app,19,99,right,0.5661104000000705,Mohammad,001,2025-04-19_08h22.56.355,task1,2021.2.3,60.10399192670159,
,,app,19,29,left,0.3975477999993018,Mohammad,001,2025-04-19_08h22.56.355,task1,2021.2.3,60.10399192670159,
,,app,19,49,left,0.5426139000001058,Mohammad,001,2025-04-19_08h22.56.355,task1,2021.2.3,60.10399192670159,
,,app,19,9,left,0.46456490000036865,Mohammad,001,2025-04-19_08h22.56.355,task1,2021.2.3,60.10399192670159,
,,app,19,9,left,0.4845030000005863,Mohammad,001,2025-04-19_08h22.56.355,task1,2021.2.3,60.10399192670159,
,,app,19,69,left,0.985174399999778,Mohammad,001,2025-04-19_08h22.56.355,task1,2021.2.3,60.10399192670159,
,,app,19,49,left,0.5458330000001297,Mohammad,001,2025-04-19_08h22.56.355,task1,2021.2.3,60.10399192670159,
,,app,19,9,left,0.5496251000004122,Mohammad,001,2025-04-19_08h22.56.355,task1,2021.2.3,60.10399192670159,
,,app,19,9,left,0.4257586000003357,Mohammad,001,2025-04-19_08h22.56.355,task1,2021.2.3,60.10399192670159,
,,app,19,39,left,0.2776929999999993,Mohammad,001,2025-04-19_08h22.56.355,task1,2021.2.3,60.10399192670159,
,,app,19,69,right,0.713297700000112,Mohammad,001,2025-04-19_08h22.56.355,task1,2021.2.3,60.10399192670159,
,,app,19,49,left,0.6717154000007213,Mohammad,001,2025-04-19_08h22.56.355,task1,2021.2.3,60.10399192670159,
,,app,19,99,right,0.44822819999990315,Mohammad,001,2025-04-19_08h22.56.355,task1,2021.2.3,60.10399192670159,
,,app,19,39,left,0.38797210000029736,Mohammad,001,2025-04-19_08h22.56.355,task1,2021.2.3,60.10399192670159,
,,app,19,39,left,0.4114133999992191,Mohammad,001,2025-04-19_08h22.56.355,task1,2021.2.3,60.10399192670159,
,,app,19,79,right,1.5054853999999978,Mohammad,001,2025-04-19_08h22.56.355,task1,2021.2.3,60.10399192670159,
,,app,19,39,left,0.3518733999999313,Mohammad,001,2025-04-19_08h22.56.355,task1,2021.2.3,60.10399192670159,
,,app,19,79,right,0.4471160000002783,Mohammad,001,2025-04-19_08h22.56.355,task1,2021.2.3,60.10399192670159,
,,app,19,9,left,0.44532040000012785,Mohammad,001,2025-04-19_08h22.56.355,task1,2021.2.3,60.10399192670159,
,,app,19,19,left,0.436079800000698,Mohammad,001,2025-04-19_08h22.56.355,task1,2021.2.3,60.10399192670159,
,,app,19,9,left,0.3886968999995588,Mohammad,001,2025-04-19_08h22.56.355,task1,2021.2.3,60.10399192670159,
,,app,19,49,left,0.36425430000053893,Mohammad,001,2025-04-19_08h22.56.355,task1,2021.2.3,60.10399192670159,
,,app,19,49,left,0.3894316000005347,Mohammad,001,2025-04-19_08h22.56.355,task1,2021.2.3,60.10399192670159,
,,app,19,89,right,0.4829727999995157,Mohammad,001,2025-04-19_08h22.56.355,task1,2021.2.3,60.10399192670159,
,,app,19,29,left,0.3538611000003584,Mohammad,001,2025-04-19_08h22.56.355,task1,2021.2.3,60.10399192670159,
,,app,19,69,right,0.7712185000000318,Mohammad,001,2025-04-19_08h22.56.355,task1,2021.2.3,60.10399192670159,
,,app,19,59,left,0.8985295000002225,Mohammad,001,2025-04-19_08h22.56.355,task1,2021.2.3,60.10399192670159,
,,app,19,19,left,0.43544119999933173,Mohammad,001,2025-04-19_08h22.56.355,task1,2021.2.3,60.10399192670159,
,,app,19,9,left,0.5107160999996267,Mohammad,001,2025-04-19_08h22.56.355,task1,2021.2.3,60.10399192670159,
,,app,19,89,right,0.333829400000468,Mohammad,001,2025-04-19_08h22.56.355,task1,2021.2.3,60.10399192670159,
,,app,19,19,left,0.3160032999994655,Mohammad,001,2025-04-19_08h22.56.355,task1,2021.2.3,60.10399192670159,
,,app,19,39,left,0.3304967000003671,Mohammad,001,2025-04-19_08h22.56.355,task1,2021.2.3,60.10399192670159,
,,app,19,59,left,0.3767210000005434,Mohammad,001,2025-04-19_08h22.56.355,task1,2021.2.3,60.10399192670159,
,,app,19,59,left,0.5017938999999387,Mohammad,001,2025-04-19_08h22.56.355,task1,2021.2.3,60.10399192670159,
,,app,19,99,right,0.3242648999994344,Mohammad,001,2025-04-19_08h22.56.355,task1,2021.2.3,60.10399192670159,
,,app,19,39,left,0.3077631999994992,Mohammad,001,2025-04-19_08h22.56.355,task1,2021.2.3,60.10399192670159,
,,app,19,69,left,1.2920931999997265,Mohammad,001,2025-04-19_08h22.56.355,task1,2021.2.3,60.10399192670159,
,,app,19,69,left,0.5767682999994577,Mohammad,001,2025-04-19_08h22.56.355,task1,2021.2.3,60.10399192670159,
,,app,19,79,right,0.34320299999944837,Mohammad,001,2025-04-19_08h22.56.355,task1,2021.2.3,60.10399192670159,
,,app,19,9,left,0.5366075000001729,Mohammad,001,2025-04-19_08h22.56.355,task1,2021.2.3,60.10399192670159,
,,app,19,69,right,0.3585790999995879,Mohammad,001,2025-04-19_08h22.56.355,task1,2021.2.3,60.10399192670159,
,,app,19,19,left,0.3261880000000019,Mohammad,001,2025-04-19_08h22.56.355,task1,2021.2.3,60.10399192670159,
,,app,19,59,right,0.24938380000003235,Mohammad,001,2025-04-19_08h22.56.355,task1,2021.2.3,60.10399192670159,
,,app,19,39,left,0.2359784000000218,Mohammad,001,2025-04-19_08h22.56.355,task1,2021.2.3,60.10399192670159,
,,app,19,89,right,0.26766870000028575,Mohammad,001,2025-04-19_08h22.56.355,task1,2021.2.3,60.10399192670159,
,,app,19,49,left,0.23657230000026175,Mohammad,001,2025-04-19_08h22.56.355,task1,2021.2.3,60.10399192670159,
,,app,19,29,right,0.29186659999959375,Mohammad,001,2025-04-19_08h22.56.355,task1,2021.2.3,60.10399192670159,
,,app,19,29,left,0.15746609999951033,Mohammad,001,2025-04-19_08h22.56.355,task1,2021.2.3,60.10399192670159,
,,app,19,89,right,0.3113524000000325,Mohammad,001,2025-04-19_08h22.56.355,task1,2021.2.3,60.10399192670159,
,,app,19,19,left,0.14445590000013908,Mohammad,001,2025-04-19_08h22.56.355,task1,2021.2.3,60.10399192670159,
,,app,19,19,left,0.4437815999999657,Mohammad,001,2025-04-19_08h22.56.355,task1,2021.2.3,60.10399192670159,
,,app,19,9,left,0.23068309999962366,Mohammad,001,2025-04-19_08h22.56.355,task1,2021.2.3,60.10399192670159,
,,app,19,19,left,0.1592214000002059,Mohammad,001,2025-04-19_08h22.56.355,task1,2021.2.3,60.10399192670159,
,,app,19,99,right,0.46407340000041586,Mohammad,001,2025-04-19_08h22.56.355,task1,2021.2.3,60.10399192670159,
,,app,19,59,right,0.4129069000000527,Mohammad,001,2025-04-19_08h22.56.355,task1,2021.2.3,60.10399192670159,
,,app,19,79,right,0.5807858999996824,Mohammad,001,2025-04-19_08h22.56.355,task1,2021.2.3,60.10399192670159,
,,app,19,9,left,0.23888480000005075,Mohammad,001,2025-04-19_08h22.56.355,task1,2021.2.3,60.10399192670159,
,,app,19,19,left,0.15726119999999355,Mohammad,001,2025-04-19_08h22.56.355,task1,2021.2.3,60.10399192670159,
,,app,19,49,left,0.06971390000035171,Mohammad,001,2025-04-19_08h22.56.355,task1,2021.2.3,60.10399192670159,
,,app,19,89,right,0.3331540999997742,Mohammad,001,2025-04-19_08h22.56.355,task1,2021.2.3,60.10399192670159,
,,app,19,89,right,0.24806340000031923,Mohammad,001,2025-04-19_08h22.56.355,task1,2021.2.3,60.10399192670159,
,,app,19,49,left,0.08885650000047463,Mohammad,001,2025-04-19_08h22.56.355,task1,2021.2.3,60.10399192670159,
,,app,19,39,left,0.2710128999997323,Mohammad,001,2025-04-19_08h22.56.355,task1,2021.2.3,60.10399192670159,
,,app,19,89,right,0.062208299999838346,Mohammad,001,2025-04-19_08h22.56.355,task1,2021.2.3,60.10399192670159,
,,app,19,79,right,0.007242200000291632,Mohammad,001,2025-04-19_08h22.56.355,task1,2021.2.3,60.10399192670159,
,,app,19,29,left,0.21148339999945165,Mohammad,001,2025-04-19_08h22.56.355,task1,2021.2.3,60.10399192670159,
,,app,19,99,right,0.3314945000001899,Mohammad,001,2025-04-19_08h22.56.355,task1,2021.2.3,60.10399192670159,
,,app,19,19,left,0.06563209999967512,Mohammad,001,2025-04-19_08h22.56.355,task1,2021.2.3,60.10399192670159,
,,app,19,29,left,0.26166680000005726,Mohammad,001,2025-04-19_08h22.56.355,task1,2021.2.3,60.10399192670159,
,,sha,9,39,left,2.153348400000141,Mohammad,001,2025-04-19_08h22.56.355,task1,2021.2.3,60.10399192670159,
,,sha,9,39,left,0.742474200000288,Mohammad,001,2025-04-19_08h22.56.355,task1,2021.2.3,60.10399192670159,
,,sha,9,59,left,1.1294815999999628,Mohammad,001,2025-04-19_08h22.56.355,task1,2021.2.3,60.10399192670159,
,,sha,9,19,left,0.46064019999994343,Mohammad,001,2025-04-19_08h22.56.355,task1,2021.2.3,60.10399192670159,
,,sha,9,79,right,0.5983723999997892,Mohammad,001,2025-04-19_08h22.56.355,task1,2021.2.3,60.10399192670159,
,,sha,9,49,left,1.020038999999997,Mohammad,001,2025-04-19_08h22.56.355,task1,2021.2.3,60.10399192670159,
,,sha,9,79,right,0.7459790000002613,Mohammad,001,2025-04-19_08h22.56.355,task1,2021.2.3,60.10399192670159,
,,sha,9,49,left,1.053575599999931,Mohammad,001,2025-04-19_08h22.56.355,task1,2021.2.3,60.10399192670159,
,,sha,9,89,right,0.5445540000000619,Mohammad,001,2025-04-19_08h22.56.355,task1,2021.2.3,60.10399192670159,
,,sha,9,29,left,0.4277356000002328,Mohammad,001,2025-04-19_08h22.56.355,task1,2021.2.3,60.10399192670159,
,,sha,9,69,left,0.642023600000357,Mohammad,001,2025-04-19_08h22.56.355,task1,2021.2.3,60.10399192670159,
,,sha,9,9,left,0.5271824000001288,Mohammad,001,2025-04-19_08h22.56.355,task1,2021.2.3,60.10399192670159,
,,sha,9,49,left,0.5871627999995326,Mohammad,001,2025-04-19_08h22.56.355,task1,2021.2.3,60.10399192670159,
,,sha,9,69,right,0.904805999999553,Mohammad,001,2025-04-19_08h22.56.355,task1,2021.2.3,60.10399192670159,
,,sha,9,99,right,0.40236390000063693,Mohammad,001,2025-04-19_08h22.56.355,task1,2021.2.3,60.10399192670159,
,,sha,9,79,right,0.6876423999992767,Mohammad,001,2025-04-19_08h22.56.355,task1,2021.2.3,60.10399192670159,
,,sha,9,19,left,0.4026174999999057,Mohammad,001,2025-04-19_08h22.56.355,task1,2021.2.3,60.10399192670159,
,,sha,9,29,left,0.43327940000017406,Mohammad,001,2025-04-19_08h22.56.355,task1,2021.2.3,60.10399192670159,
,,sha,9,59,left,0.816331199999695,Mohammad,001,2025-04-19_08h22.56.355,task1,2021.2.3,60.10399192670159,
,,sha,9,99,right,0.30951699999968696,Mohammad,001,2025-04-19_08h22.56.355,task1,2021.2.3,60.10399192670159,
,,sha,9,29,left,0.36915249999947264,Mohammad,001,2025-04-19_08h22.56.355,task1,2021.2.3,60.10399192670159,
,,sha,9,59,left,0.9606535000002623,Mohammad,001,2025-04-19_08h22.56.355,task1,2021.2.3,60.10399192670159,
,,sha,9,89,right,0.286904699999468,Mohammad,001,2025-04-19_08h22.56.355,task1,2021.2.3,60.10399192670159,
,,sha,9,29,left,0.37476860000060697,Mohammad,001,2025-04-19_08h22.56.355,task1,2021.2.3,60.10399192670159,
,,sha,9,19,left,0.9100291999993715,Mohammad,001,2025-04-19_08h22.56.355,task1,2021.2.3,60.10399192670159,
,,sha,9,69,right,0.3434313000007023,Mohammad,001,2025-04-19_08h22.56.355,task1,2021.2.3,60.10399192670159,
,,sha,9,79,right,0.9589789000001474,Mohammad,001,2025-04-19_08h22.56.355,task1,2021.2.3,60.10399192670159,
,,sha,9,49,left,0.6723658000000796,Mohammad,001,2025-04-19_08h22.56.355,task1,2021.2.3,60.10399192670159,
,,sha,9,19,left,0.8732124999996813,Mohammad,001,2025-04-19_08h22.56.355,task1,2021.2.3,60.10399192670159,
,,sha,9,99,right,0.48309659999995347,Mohammad,001,2025-04-19_08h22.56.355,task1,2021.2.3,60.10399192670159,
,,sha,9,29,left,0.5853409999999712,Mohammad,001,2025-04-19_08h22.56.355,task1,2021.2.3,60.10399192670159,
,,sha,9,89,right,0.6590956999998525,Mohammad,001,2025-04-19_08h22.56.355,task1,2021.2.3,60.10399192670159,
,,sha,9,39,left,0.3992847999998048,Mohammad,001,2025-04-19_08h22.56.355,task1,2021.2.3,60.10399192670159,
,,sha,9,39,left,1.0510092000004079,Mohammad,001,2025-04-19_08h22.56.355,task1,2021.2.3,60.10399192670159,
,,sha,9,99,right,0.29305939999994735,Mohammad,001,2025-04-19_08h22.56.355,task1,2021.2.3,60.10399192670159,
,,sha,9,29,left,0.38382910000018455,Mohammad,001,2025-04-19_08h22.56.355,task1,2021.2.3,60.10399192670159,
,,sha,9,99,right,0.3682535999996617,Mohammad,001,2025-04-19_08h22.56.355,task1,2021.2.3,60.10399192670159,
,,sha,9,99,left,1.5911408000001757,Mohammad,001,2025-04-19_08h22.56.355,task1,2021.2.3,60.10399192670159,
,,sha,9,79,right,0.44932989999961137,Mohammad,001,2025-04-19_08h22.56.355,task1,2021.2.3,60.10399192670159,
,,sha,9,19,left,0.24469070000031934,Mohammad,001,2025-04-19_08h22.56.355,task1,2021.2.3,60.10399192670159,
,,sha,9,9,left,0.5053883999999016,Mohammad,001,2025-04-19_08h22.56.355,task1,2021.2.3,60.10399192670159,
,,sha,9,69,right,0.4066930000008142,Mohammad,001,2025-04-19_08h22.56.355,task1,2021.2.3,60.10399192670159,
,,sha,9,79,right,0.7346954999993613,Mohammad,001,2025-04-19_08h22.56.355,task1,2021.2.3,60.10399192670159,
,,sha,9,49,left,0.5104621999998926,Mohammad,001,2025-04-19_08h22.56.355,task1,2021.2.3,60.10399192670159,
,,sha,9,39,left,1.4082040000002962,Mohammad,001,2025-04-19_08h22.56.355,task1,2021.2.3,60.10399192670159,
,,sha,9,59,right,0.7514007999998285,Mohammad,001,2025-04-19_08h22.56.355,task1,2021.2.3,60.10399192670159,
,,sha,9,89,right,0.7811552000002848,Mohammad,001,2025-04-19_08h22.56.355,task1,2021.2.3,60.10399192670159,
,,sha,9,89,right,0.47299569999995583,Mohammad,001,2025-04-19_08h22.56.355,task1,2021.2.3,60.10399192670159,
,,sha,9,39,left,0.5039129000006142,Mohammad,001,2025-04-19_08h22.56.355,task1,2021.2.3,60.10399192670159,
,,sha,9,79,left,1.0029611999998451,Mohammad,001,2025-04-19_08h22.56.355,task1,2021.2.3,60.10399192670159,
,,sha,9,19,left,0.5593054999999367,Mohammad,001,2025-04-19_08h22.56.355,task1,2021.2.3,60.10399192670159,
,,sha,9,79,right,0.5511886000003869,Mohammad,001,2025-04-19_08h22.56.355,task1,2021.2.3,60.10399192670159,
,,sha,9,59,left,1.509670599999481,Mohammad,001,2025-04-19_08h22.56.355,task1,2021.2.3,60.10399192670159,
,,sha,9,9,left,0.48260430000027554,Mohammad,001,2025-04-19_08h22.56.355,task1,2021.2.3,60.10399192670159,
,,sha,9,19,left,0.589721099999224,Mohammad,001,2025-04-19_08h22.56.355,task1,2021.2.3,60.10399192670159,
,,sha,9,39,left,0.39595139999983076,Mohammad,001,2025-04-19_08h22.56.355,task1,2021.2.3,60.10399192670159,
,,sha,9,99,right,0.4007798000002367,Mohammad,001,2025-04-19_08h22.56.355,task1,2021.2.3,60.10399192670159,
,,sha,9,39,left,0.38750960000015766,Mohammad,001,2025-04-19_08h22.56.355,task1,2021.2.3,60.10399192670159,
,,sha,9,99,right,0.4652809999997771,Mohammad,001,2025-04-19_08h22.56.355,task1,2021.2.3,60.10399192670159,
,,sha,9,99,right,0.4718123000002379,Mohammad,001,2025-04-19_08h22.56.355,task1,2021.2.3,60.10399192670159,
,,sha,9,9,left,0.3434723000000304,Mohammad,001,2025-04-19_08h22.56.355,task1,2021.2.3,60.10399192670159,
,,sha,9,29,left,0.2721180999997159,Mohammad,001,2025-04-19_08h22.56.355,task1,2021.2.3,60.10399192670159,
,,sha,9,9,left,1.072914999999739,Mohammad,001,2025-04-19_08h22.56.355,task1,2021.2.3,60.10399192670159,
,,sha,9,9,left,0.4207728000001225,Mohammad,001,2025-04-19_08h22.56.355,task1,2021.2.3,60.10399192670159,
,,sha,9,9,left,0.08824120000008406,Mohammad,001,2025-04-19_08h22.56.355,task1,2021.2.3,60.10399192670159,
,,sha,9,49,right,2.1453707999999097,Mohammad,001,2025-04-19_08h22.56.355,task1,2021.2.3,60.10399192670159,
,,sha,9,89,right,0.585089500000322,Mohammad,001,2025-04-19_08h22.56.355,task1,2021.2.3,60.10399192670159,
,,sha,9,59,right,0.5873696999997264,Mohammad,001,2025-04-19_08h22.56.355,task1,2021.2.3,60.10399192670159,
,,sha,9,59,right,0.6750102000005427,Mohammad,001,2025-04-19_08h22.56.355,task1,2021.2.3,60.10399192670159,
,,sha,9,19,left,0.42589630000020406,Mohammad,001,2025-04-19_08h22.56.355,task1,2021.2.3,60.10399192670159,
,,sha,9,49,left,0.6320176999997784,Mohammad,001,2025-04-19_08h22.56.355,task1,2021.2.3,60.10399192670159,
,,sha,9,79,right,0.3473650000005364,Mohammad,001,2025-04-19_08h22.56.355,task1,2021.2.3,60.10399192670159,
,,sha,9,89,right,0.17819890000009764,Mohammad,001,2025-04-19_08h22.56.355,task1,2021.2.3,60.10399192670159,
,,sha,9,29,left,0.45564199999989796,Mohammad,001,2025-04-19_08h22.56.355,task1,2021.2.3,60.10399192670159,
,,sha,9,89,right,0.3289604000001418,Mohammad,001,2025-04-19_08h22.56.355,task1,2021.2.3,60.10399192670159,
,,sha,9,79,right,0.2792202999999063,Mohammad,001,2025-04-19_08h22.56.355,task1,2021.2.3,60.10399192670159,
,,sha,9,59,right,0.629320000000007,Mohammad,001,2025-04-19_08h22.56.355,task1,2021.2.3,60.10399192670159,
,,sha,9,69,right,0.7186252000001332,Mohammad,001,2025-04-19_08h22.56.355,task1,2021.2.3,60.10399192670159,
,,sha,9,59,right,0.5306343000002016,Mohammad,001,2025-04-19_08h22.56.355,task1,2021.2.3,60.10399192670159,
,,sha,9,69,right,0.34661229999983334,Mohammad,001,2025-04-19_08h22.56.355,task1,2021.2.3,60.10399192670159,
,,sha,9,29,left,0.30507480000051146,Mohammad,001,2025-04-19_08h22.56.355,task1,2021.2.3,60.10399192670159,
,,sha,9,49,left,0.3395037999998749,Mohammad,001,2025-04-19_08h22.56.355,task1,2021.2.3,60.10399192670159,
,,sha,9,9,left,0.12287629999991623,Mohammad,001,2025-04-19_08h22.56.355,task1,2021.2.3,60.10399192670159,
,,sha,9,19,left,0.07411229999979696,Mohammad,001,2025-04-19_08h22.56.355,task1,2021.2.3,60.10399192670159,
,,sha,9,9,left,0.01554290000058245,Mohammad,001,2025-04-19_08h22.56.355,task1,2021.2.3,60.10399192670159,
,,sha,9,69,left,1.0735706000004939,Mohammad,001,2025-04-19_08h22.56.355,task1,2021.2.3,60.10399192670159,
,,sha,9,99,left,0.8499456999998074,Mohammad,001,2025-04-19_08h22.56.355,task1,2021.2.3,60.10399192670159,
,,sha,9,59,left,0.4018364000003203,Mohammad,001,2025-04-19_08h22.56.355,task1,2021.2.3,60.10399192670159,
,,sha,9,89,left,0.7691278000002058,Mohammad,001,2025-04-19_08h22.56.355,task1,2021.2.3,60.10399192670159,
,,sha,9,9,left,0.5404590999996799,Mohammad,001,2025-04-19_08h22.56.355,task1,2021.2.3,60.10399192670159,
,,sha,9,29,left,0.22302810000019235,Mohammad,001,2025-04-19_08h22.56.355,task1,2021.2.3,60.10399192670159,
,,sha,9,49,left,0.531583199999659,Mohammad,001,2025-04-19_08h22.56.355,task1,2021.2.3,60.10399192670159,
,,sha,9,89,right,0.34644220000063797,Mohammad,001,2025-04-19_08h22.56.355,task1,2021.2.3,60.10399192670159,
,,sha,9,69,right,0.5135460000001331,Mohammad,001,2025-04-19_08h22.56.355,task1,2021.2.3,60.10399192670159,
,,sha,9,39,left,0.2546836000001349,Mohammad,001,2025-04-19_08h22.56.355,task1,2021.2.3,60.10399192670159,
,,sha,9,49,left,0.5051240000002508,Mohammad,001,2025-04-19_08h22.56.355,task1,2021.2.3,60.10399192670159,
,,sha,9,19,left,0.29913740000029065,Mohammad,001,2025-04-19_08h22.56.355,task1,2021.2.3,60.10399192670159,
,,sha,9,69,right,1.4821214999992662,Mohammad,001,2025-04-19_08h22.56.355,task1,2021.2.3,60.10399192670159,
,,sha,9,39,left,0.1742168999999194,Mohammad,001,2025-04-19_08h22.56.355,task1,2021.2.3,60.10399192670159,
,,sha,9,69,left,0.994869999999537,Mohammad,001,2025-04-19_08h22.56.355,task1,2021.2.3,60.10399192670159,
,,sha,19,99,right,2.520977999999559,Mohammad,001,2025-04-19_08h22.56.355,task1,2021.2.3,60.10399192670159,
,,sha,19,29,left,1.2064227999999275,Mohammad,001,2025-04-19_08h22.56.355,task1,2021.2.3,60.10399192670159,
,,sha,19,29,left,2.285845700000209,Mohammad,001,2025-04-19_08h22.56.355,task1,2021.2.3,60.10399192670159,
,,sha,19,69,right,1.3148632999991605,Mohammad,001,2025-04-19_08h22.56.355,task1,2021.2.3,60.10399192670159,
,,sha,19,69,right,0.34185299999990093,Mohammad,001,2025-04-19_08h22.56.355,task1,2021.2.3,60.10399192670159,
,,sha,19,29,right,1.8128712999996424,Mohammad,001,2025-04-19_08h22.56.355,task1,2021.2.3,60.10399192670159,
,,sha,19,39,left,1.3506248000003325,Mohammad,001,2025-04-19_08h22.56.355,task1,2021.2.3,60.10399192670159,
,,sha,19,69,right,2.2795196999995824,Mohammad,001,2025-04-19_08h22.56.355,task1,2021.2.3,60.10399192670159,
,,sha,19,79,right,1.5101623999998992,Mohammad,001,2025-04-19_08h22.56.355,task1,2021.2.3,60.10399192670159,
,,sha,19,59,right,0.5237006999996083,Mohammad,001,2025-04-19_08h22.56.355,task1,2021.2.3,60.10399192670159,
,,sha,19,99,right,0.5623977000004743,Mohammad,001,2025-04-19_08h22.56.355,task1,2021.2.3,60.10399192670159,
,,sha,19,49,right,0.9672636999994211,Mohammad,001,2025-04-19_08h22.56.355,task1,2021.2.3,60.10399192670159,
,,sha,19,79,right,1.4770689000006314,Mohammad,001,2025-04-19_08h22.56.355,task1,2021.2.3,60.10399192670159,
,,sha,19,69,left,1.6353795000004538,Mohammad,001,2025-04-19_08h22.56.355,task1,2021.2.3,60.10399192670159,
,,sha,19,69,left,0.5911222000004273,Mohammad,001,2025-04-19_08h22.56.355,task1,2021.2.3,60.10399192670159,
,,sha,19,49,left,0.5166809000002104,Mohammad,001,2025-04-19_08h22.56.355,task1,2021.2.3,60.10399192670159,
,,sha,19,39,left,2.5516205999992962,Mohammad,001,2025-04-19_08h22.56.355,task1,2021.2.3,60.10399192670159,
,,sha,19,59,left,0.39921700000013516,Mohammad,001,2025-04-19_08h22.56.355,task1,2021.2.3,60.10399192670159,
,,sha,19,59,left,0.33284200000070996,Mohammad,001,2025-04-19_08h22.56.355,task1,2021.2.3,60.10399192670159,
,,sha,19,29,left,0.49784730000010313,Mohammad,001,2025-04-19_08h22.56.355,task1,2021.2.3,60.10399192670159,
,,sha,19,19,left,0.4849383000000671,Mohammad,001,2025-04-19_08h22.56.355,task1,2021.2.3,60.10399192670159,
,,sha,19,99,right,0.6506976000000577,Mohammad,001,2025-04-19_08h22.56.355,task1,2021.2.3,60.10399192670159,
,,sha,19,39,left,0.5539578999996593,Mohammad,001,2025-04-19_08h22.56.355,task1,2021.2.3,60.10399192670159,
,,sha,19,69,left,0.6370764000002964,Mohammad,001,2025-04-19_08h22.56.355,task1,2021.2.3,60.10399192670159,
,,sha,19,9,left,0.47415230000024167,Mohammad,001,2025-04-19_08h22.56.355,task1,2021.2.3,60.10399192670159,
,,sha,19,39,left,0.5342596000000412,Mohammad,001,2025-04-19_08h22.56.355,task1,2021.2.3,60.10399192670159,
,,sha,19,59,left,1.393800800000463,Mohammad,001,2025-04-19_08h22.56.355,task1,2021.2.3,60.10399192670159,
,,sha,19,49,right,0.6860372000001007,Mohammad,001,2025-04-19_08h22.56.355,task1,2021.2.3,60.10399192670159,
,,sha,19,89,right,0.6448516000000382,Mohammad,001,2025-04-19_08h22.56.355,task1,2021.2.3,60.10399192670159,
,,sha,19,89,right,0.17093060000024707,Mohammad,001,2025-04-19_08h22.56.355,task1,2021.2.3,60.10399192670159,
,,sha,19,89,right,0.4220666999999594,Mohammad,001,2025-04-19_08h22.56.355,task1,2021.2.3,60.10399192670159,
,,sha,19,59,right,0.6220161999999618,Mohammad,001,2025-04-19_08h22.56.355,task1,2021.2.3,60.10399192670159,
,,sha,19,79,right,0.43480540000018664,Mohammad,001,2025-04-19_08h22.56.355,task1,2021.2.3,60.10399192670159,
,,sha,19,59,left,1.189914100000351,Mohammad,001,2025-04-19_08h22.56.355,task1,2021.2.3,60.10399192670159,
,,sha,19,59,left,0.7432636000003185,Mohammad,001,2025-04-19_08h22.56.355,task1,2021.2.3,60.10399192670159,
,,sha,19,9,right,1.3188227999999071,Mohammad,001,2025-04-19_08h22.56.355,task1,2021.2.3,60.10399192670159,
,,sha,19,89,right,0.7662602999998853,Mohammad,001,2025-04-19_08h22.56.355,task1,2021.2.3,60.10399192670159,
,,sha,19,89,right,0.31957919999968,Mohammad,001,2025-04-19_08h22.56.355,task1,2021.2.3,60.10399192670159,
,,sha,19,89,right,0.37520169999970676,Mohammad,001,2025-04-19_08h22.56.355,task1,2021.2.3,60.10399192670159,
,,sha,19,39,left,0.9604267999993681,Mohammad,001,2025-04-19_08h22.56.355,task1,2021.2.3,60.10399192670159,
,,sha,19,59,right,1.668117400000483,Mohammad,001,2025-04-19_08h22.56.355,task1,2021.2.3,60.10399192670159,
,,sha,19,9,left,1.6583032000007734,Mohammad,001,2025-04-19_08h22.56.355,task1,2021.2.3,60.10399192670159,
,,sha,19,79,left,1.3487033999999767,Mohammad,001,2025-04-19_08h22.56.355,task1,2021.2.3,60.10399192670159,
,,sha,19,29,left,0.35451239999929385,Mohammad,001,2025-04-19_08h22.56.355,task1,2021.2.3,60.10399192670159,
,,sha,19,19,left,0.3834383000003072,Mohammad,001,2025-04-19_08h22.56.355,task1,2021.2.3,60.10399192670159,
,,sha,19,9,left,0.4453337000004467,Mohammad,001,2025-04-19_08h22.56.355,task1,2021.2.3,60.10399192670159,
,,sha,19,99,right,0.5477065000004586,Mohammad,001,2025-04-19_08h22.56.355,task1,2021.2.3,60.10399192670159,
,,sha,19,59,right,0.6476172000002407,Mohammad,001,2025-04-19_08h22.56.355,task1,2021.2.3,60.10399192670159,
,,sha,19,29,left,0.2328175000002375,Mohammad,001,2025-04-19_08h22.56.355,task1,2021.2.3,60.10399192670159,
,,sha,19,79,right,0.41950100000030943,Mohammad,001,2025-04-19_08h22.56.355,task1,2021.2.3,60.10399192670159,
,,sha,19,49,left,0.5858332999996492,Mohammad,001,2025-04-19_08h22.56.355,task1,2021.2.3,60.10399192670159,
,,sha,19,89,right,0.4068360000001121,Mohammad,001,2025-04-19_08h22.56.355,task1,2021.2.3,60.10399192670159,
,,sha,19,99,right,0.1332101000007242,Mohammad,001,2025-04-19_08h22.56.355,task1,2021.2.3,60.10399192670159,
,,sha,19,29,right,0.4278345000002446,Mohammad,001,2025-04-19_08h22.56.355,task1,2021.2.3,60.10399192670159,
,,sha,19,19,left,0.6223657999998977,Mohammad,001,2025-04-19_08h22.56.355,task1,2021.2.3,60.10399192670159,
,,sha,19,79,right,0.5187830000004396,Mohammad,001,2025-04-19_08h22.56.355,task1,2021.2.3,60.10399192670159,
,,sha,19,79,right,0.3126343000003544,Mohammad,001,2025-04-19_08h22.56.355,task1,2021.2.3,60.10399192670159,
,,sha,19,9,left,0.8870879999994941,Mohammad,001,2025-04-19_08h22.56.355,task1,2021.2.3,60.10399192670159,
,,sha,19,19,left,0.526388099999167,Mohammad,001,2025-04-19_08h22.56.355,task1,2021.2.3,60.10399192670159,
,,sha,19,79,right,0.4848936999997022,Mohammad,001,2025-04-19_08h22.56.355,task1,2021.2.3,60.10399192670159,
,,sha,19,9,left,0.381669200000033,Mohammad,001,2025-04-19_08h22.56.355,task1,2021.2.3,60.10399192670159,
,,sha,19,79,left,1.7975200999999288,Mohammad,001,2025-04-19_08h22.56.355,task1,2021.2.3,60.10399192670159,
,,sha,19,19,left,1.2089734000001044,Mohammad,001,2025-04-19_08h22.56.355,task1,2021.2.3,60.10399192670159,
,,sha,19,19,left,0.8742842000001474,Mohammad,001,2025-04-19_08h22.56.355,task1,2021.2.3,60.10399192670159,
,,sha,19,19,left,0.3755587999994532,Mohammad,001,2025-04-19_08h22.56.355,task1,2021.2.3,60.10399192670159,
,,sha,19,9,left,0.5454780999998547,Mohammad,001,2025-04-19_08h22.56.355,task1,2021.2.3,60.10399192670159,
,,sha,19,99,right,0.6827553000002808,Mohammad,001,2025-04-19_08h22.56.355,task1,2021.2.3,60.10399192670159,
,,sha,19,99,right,0.3575510000000577,Mohammad,001,2025-04-19_08h22.56.355,task1,2021.2.3,60.10399192670159,
,,sha,19,49,left,1.590471699999398,Mohammad,001,2025-04-19_08h22.56.355,task1,2021.2.3,60.10399192670159,
,,sha,19,49,left,0.3545242000000144,Mohammad,001,2025-04-19_08h22.56.355,task1,2021.2.3,60.10399192670159,
,,sha,19,79,right,0.6664430000000721,Mohammad,001,2025-04-19_08h22.56.355,task1,2021.2.3,60.10399192670159,
,,sha,19,19,left,0.5682010000000446,Mohammad,001,2025-04-19_08h22.56.355,task1,2021.2.3,60.10399192670159,
,,sha,19,29,right,0.1555569000001924,Mohammad,001,2025-04-19_08h22.56.355,task1,2021.2.3,60.10399192670159,
,,sha,19,39,left,2.002229200000329,Mohammad,001,2025-04-19_08h22.56.355,task1,2021.2.3,60.10399192670159,
,,sha,19,99,right,0.4879535999998552,Mohammad,001,2025-04-19_08h22.56.355,task1,2021.2.3,60.10399192670159,
,,sha,19,69,right,0.4193035999996937,Mohammad,001,2025-04-19_08h22.56.355,task1,2021.2.3,60.10399192670159,
,,sha,19,49,left,0.9354669000003923,Mohammad,001,2025-04-19_08h22.56.355,task1,2021.2.3,60.10399192670159,
,,sha,19,89,right,0.39999710000029154,Mohammad,001,2025-04-19_08h22.56.355,task1,2021.2.3,60.10399192670159,
,,sha,19,9,left,0.49124620000020514,Mohammad,001,2025-04-19_08h22.56.355,task1,2021.2.3,60.10399192670159,
,,sha,19,99,right,0.4641912000006414,Mohammad,001,2025-04-19_08h22.56.355,task1,2021.2.3,60.10399192670159,
,,sha,19,39,left,1.270387299999129,Mohammad,001,2025-04-19_08h22.56.355,task1,2021.2.3,60.10399192670159,
,,sha,19,49,left,0.6263331999998627,Mohammad,001,2025-04-19_08h22.56.355,task1,2021.2.3,60.10399192670159,
,,sha,19,39,left,0.4049107999999251,Mohammad,001,2025-04-19_08h22.56.355,task1,2021.2.3,60.10399192670159,
,,sha,19,59,left,0.6099925000007715,Mohammad,001,2025-04-19_08h22.56.355,task1,2021.2.3,60.10399192670159,
,,sha,19,69,left,0.4022736000006262,Mohammad,001,2025-04-19_08h22.56.355,task1,2021.2.3,60.10399192670159,
,,sha,19,69,left,0.38377590000072814,Mohammad,001,2025-04-19_08h22.56.355,task1,2021.2.3,60.10399192670159,
,,sha,19,49,left,0.40642190000016853,Mohammad,001,2025-04-19_08h22.56.355,task1,2021.2.3,60.10399192670159,
,,sha,19,39,left,0.49969659999987925,Mohammad,001,2025-04-19_08h22.56.355,task1,2021.2.3,60.10399192670159,
,,sha,19,69,left,0.7636830000001282,Mohammad,001,2025-04-19_08h22.56.355,task1,2021.2.3,60.10399192670159,
,,sha,19,9,left,0.2707848999998532,Mohammad,001,2025-04-19_08h22.56.355,task1,2021.2.3,60.10399192670159,
,,sha,19,19,left,0.8571040999995603,Mohammad,001,2025-04-19_08h22.56.355,task1,2021.2.3,60.10399192670159,
,,sha,19,99,right,0.7078879999999117,Mohammad,001,2025-04-19_08h22.56.355,task1,2021.2.3,60.10399192670159,
,,sha,19,29,left,0.7785540999993827,Mohammad,001,2025-04-19_08h22.56.355,task1,2021.2.3,60.10399192670159,
,,sha,19,29,left,0.6294227000007595,Mohammad,001,2025-04-19_08h22.56.355,task1,2021.2.3,60.10399192670159,
,,sha,19,39,left,0.3104782999998861,Mohammad,001,2025-04-19_08h22.56.355,task1,2021.2.3,60.10399192670159,
,,sha,19,89,right,0.4204288999999335,Mohammad,001,2025-04-19_08h22.56.355,task1,2021.2.3,60.10399192670159,
,,sha,19,49,right,0.43955969999933586,Mohammad,001,2025-04-19_08h22.56.355,task1,2021.2.3,60.10399192670159,
,,sha,19,89,right,0.0950487999998586,Mohammad,001,2025-04-19_08h22.56.355,task1,2021.2.3,60.10399192670159,
,,sha,19,9,left,0.333684500000345,Mohammad,001,2025-04-19_08h22.56.355,task1,2021.2.3,60.10399192670159,
,,sha,19,19,left,0.6028149000003395,Mohammad,001,2025-04-19_08h22.56.355,task1,2021.2.3,60.10399192670159,
