thisRow.t,notes,folder,feature,morph_level,response_key,rt,participant,session,date,expName,psychopyVersion,frameRate,
,,app,9,99,right,1.424733699999706,Parsa,001,2025-04-19_09h15.41.540,task1,2021.2.3,60.01669664485117,
,,app,9,79,right,0.3713670000015554,Parsa,001,2025-04-19_09h15.41.540,task1,2021.2.3,60.01669664485117,
,,app,9,49,left,2.0736636000001454,Parsa,001,2025-04-19_09h15.41.540,task1,2021.2.3,60.01669664485117,
,,app,9,49,left,0.894666000000143,Parsa,001,2025-04-19_09h15.41.540,task1,2021.2.3,60.01669664485117,
,,app,9,29,left,0.31988749999982247,Parsa,001,2025-04-19_09h15.41.540,task1,2021.2.3,60.01669664485117,
,,app,9,49,left,0.5403084000008676,Parsa,001,2025-04-19_09h15.41.540,task1,2021.2.3,60.01669664485117,
,,app,9,89,right,1.756270099998801,Parsa,001,2025-04-19_09h15.41.540,task1,2021.2.3,60.01669664485117,
,,app,9,19,left,0.7351271999996243,Parsa,001,2025-04-19_09h15.41.540,task1,2021.2.3,60.01669664485117,
,,app,9,89,right,0.17858150000029127,Parsa,001,2025-04-19_09h15.41.540,task1,2021.2.3,60.01669664485117,
,,app,9,79,right,0.19776180000008026,Parsa,001,2025-04-19_09h15.41.540,task1,2021.2.3,60.01669664485117,
,,app,9,29,left,0.2301619000008941,Parsa,001,2025-04-19_09h15.41.540,task1,2021.2.3,60.01669664485117,
,,app,9,29,left,1.799448100000518,Parsa,001,2025-04-19_09h15.41.540,task1,2021.2.3,60.01669664485117,
,,app,9,9,left,0.5217602000011539,Parsa,001,2025-04-19_09h15.41.540,task1,2021.2.3,60.01669664485117,
,,app,9,89,right,0.5966090000001714,Parsa,001,2025-04-19_09h15.41.540,task1,2021.2.3,60.01669664485117,
,,app,9,49,right,1.4660732000011194,Parsa,001,2025-04-19_09h15.41.540,task1,2021.2.3,60.01669664485117,
,,app,9,29,left,2.05143119999957,Parsa,001,2025-04-19_09h15.41.540,task1,2021.2.3,60.01669664485117,
,,app,9,99,right,0.23590739999963262,Parsa,001,2025-04-19_09h15.41.540,task1,2021.2.3,60.01669664485117,
,,app,9,79,right,0.17584340000030352,Parsa,001,2025-04-19_09h15.41.540,task1,2021.2.3,60.01669664485117,
,,app,9,19,left,0.22852809999858437,Parsa,001,2025-04-19_09h15.41.540,task1,2021.2.3,60.01669664485117,
,,app,9,39,left,0.363200699999652,Parsa,001,2025-04-19_09h15.41.540,task1,2021.2.3,60.01669664485117,
,,app,9,99,right,0.29957780000040657,Parsa,001,2025-04-19_09h15.41.540,task1,2021.2.3,60.01669664485117,
,,app,9,99,right,0.3431767000001855,Parsa,001,2025-04-19_09h15.41.540,task1,2021.2.3,60.01669664485117,
,,app,9,99,right,3.08741579999878,Parsa,001,2025-04-19_09h15.41.540,task1,2021.2.3,60.01669664485117,
,,app,9,89,right,0.9901190000000497,Parsa,001,2025-04-19_09h15.41.540,task1,2021.2.3,60.01669664485117,
,,app,9,49,left,1.0396483000004082,Parsa,001,2025-04-19_09h15.41.540,task1,2021.2.3,60.01669664485117,
,,app,9,39,left,0.2521561000012298,Parsa,001,2025-04-19_09h15.41.540,task1,2021.2.3,60.01669664485117,
,,app,9,89,right,0.2990428000011889,Parsa,001,2025-04-19_09h15.41.540,task1,2021.2.3,60.01669664485117,
,,app,9,79,right,0.289754699999321,Parsa,001,2025-04-19_09h15.41.540,task1,2021.2.3,60.01669664485117,
,,app,9,9,left,0.309664000000339,Parsa,001,2025-04-19_09h15.41.540,task1,2021.2.3,60.01669664485117,
,,app,9,49,right,1.9775709000005008,Parsa,001,2025-04-19_09h15.41.540,task1,2021.2.3,60.01669664485117,
,,app,9,69,right,0.27996900000107416,Parsa,001,2025-04-19_09h15.41.540,task1,2021.2.3,60.01669664485117,
,,app,9,49,left,0.28635059999942314,Parsa,001,2025-04-19_09h15.41.540,task1,2021.2.3,60.01669664485117,
,,app,9,29,left,0.2618813000008231,Parsa,001,2025-04-19_09h15.41.540,task1,2021.2.3,60.01669664485117,
,,app,9,59,right,0.6166896000013367,Parsa,001,2025-04-19_09h15.41.540,task1,2021.2.3,60.01669664485117,
,,app,9,59,right,0.2532506999996258,Parsa,001,2025-04-19_09h15.41.540,task1,2021.2.3,60.01669664485117,
,,app,9,79,right,0.36747029999969527,Parsa,001,2025-04-19_09h15.41.540,task1,2021.2.3,60.01669664485117,
,,app,9,69,right,1.7748735000004672,Parsa,001,2025-04-19_09h15.41.540,task1,2021.2.3,60.01669664485117,
,,app,9,19,left,0.09552099999928032,Parsa,001,2025-04-19_09h15.41.540,task1,2021.2.3,60.01669664485117,
,,app,9,9,left,0.2257251000010001,Parsa,001,2025-04-19_09h15.41.540,task1,2021.2.3,60.01669664485117,
,,app,9,39,left,0.23868150000089372,Parsa,001,2025-04-19_09h15.41.540,task1,2021.2.3,60.01669664485117,
,,app,9,19,left,0.27099030000135826,Parsa,001,2025-04-19_09h15.41.540,task1,2021.2.3,60.01669664485117,
,,app,9,69,right,0.3537315000012313,Parsa,001,2025-04-19_09h15.41.540,task1,2021.2.3,60.01669664485117,
,,app,9,69,right,2.192993900000147,Parsa,001,2025-04-19_09h15.41.540,task1,2021.2.3,60.01669664485117,
,,app,9,9,left,0.7820203000010224,Parsa,001,2025-04-19_09h15.41.540,task1,2021.2.3,60.01669664485117,
,,app,9,29,left,0.21566319999874395,Parsa,001,2025-04-19_09h15.41.540,task1,2021.2.3,60.01669664485117,
,,app,9,99,right,0.6299858999991557,Parsa,001,2025-04-19_09h15.41.540,task1,2021.2.3,60.01669664485117,
,,app,9,89,right,0.4048163999996177,Parsa,001,2025-04-19_09h15.41.540,task1,2021.2.3,60.01669664485117,
,,app,9,29,left,0.48004650000075344,Parsa,001,2025-04-19_09h15.41.540,task1,2021.2.3,60.01669664485117,
,,app,9,79,right,0.41150540000126057,Parsa,001,2025-04-19_09h15.41.540,task1,2021.2.3,60.01669664485117,
,,app,9,79,right,0.24137979999977688,Parsa,001,2025-04-19_09h15.41.540,task1,2021.2.3,60.01669664485117,
,,app,9,99,right,0.8797056000003067,Parsa,001,2025-04-19_09h15.41.540,task1,2021.2.3,60.01669664485117,
,,app,9,89,right,1.7032718000009481,Parsa,001,2025-04-19_09h15.41.540,task1,2021.2.3,60.01669664485117,
,,app,9,59,right,0.6359556000006705,Parsa,001,2025-04-19_09h15.41.540,task1,2021.2.3,60.01669664485117,
,,app,9,39,left,0.4490808000009565,Parsa,001,2025-04-19_09h15.41.540,task1,2021.2.3,60.01669664485117,
,,app,9,49,left,1.144085299998551,Parsa,001,2025-04-19_09h15.41.540,task1,2021.2.3,60.01669664485117,
,,app,9,39,left,0.26639129999966826,Parsa,001,2025-04-19_09h15.41.540,task1,2021.2.3,60.01669664485117,
,,app,9,59,right,2.017878800001199,Parsa,001,2025-04-19_09h15.41.540,task1,2021.2.3,60.01669664485117,
,,app,9,19,left,3.9599078000010195,Parsa,001,2025-04-19_09h15.41.540,task1,2021.2.3,60.01669664485117,
,,app,9,69,right,0.1736099000008835,Parsa,001,2025-04-19_09h15.41.540,task1,2021.2.3,60.01669664485117,
,,app,9,9,left,0.7164508999994723,Parsa,001,2025-04-19_09h15.41.540,task1,2021.2.3,60.01669664485117,
,,app,9,69,right,1.5675584000000526,Parsa,001,2025-04-19_09h15.41.540,task1,2021.2.3,60.01669664485117,
,,app,9,9,left,0.4624989000003552,Parsa,001,2025-04-19_09h15.41.540,task1,2021.2.3,60.01669664485117,
,,app,9,99,right,0.7858692000008887,Parsa,001,2025-04-19_09h15.41.540,task1,2021.2.3,60.01669664485117,
,,app,9,29,left,0.983152800001335,Parsa,001,2025-04-19_09h15.41.540,task1,2021.2.3,60.01669664485117,
,,app,9,89,right,1.2348438999997597,Parsa,001,2025-04-19_09h15.41.540,task1,2021.2.3,60.01669664485117,
,,app,9,69,right,0.6771150000004127,Parsa,001,2025-04-19_09h15.41.540,task1,2021.2.3,60.01669664485117,
,,app,9,19,left,0.22772599999916565,Parsa,001,2025-04-19_09h15.41.540,task1,2021.2.3,60.01669664485117,
,,app,9,59,right,0.22172650000175054,Parsa,001,2025-04-19_09h15.41.540,task1,2021.2.3,60.01669664485117,
,,app,9,69,right,1.132051099999444,Parsa,001,2025-04-19_09h15.41.540,task1,2021.2.3,60.01669664485117,
,,app,9,29,left,0.27483030000075814,Parsa,001,2025-04-19_09h15.41.540,task1,2021.2.3,60.01669664485117,
,,app,9,59,right,0.6445765999997093,Parsa,001,2025-04-19_09h15.41.540,task1,2021.2.3,60.01669664485117,
,,app,9,9,left,1.2698684999995749,Parsa,001,2025-04-19_09h15.41.540,task1,2021.2.3,60.01669664485117,
,,app,9,79,right,2.3246645999988687,Parsa,001,2025-04-19_09h15.41.540,task1,2021.2.3,60.01669664485117,
,,app,9,59,right,0.24663130000044475,Parsa,001,2025-04-19_09h15.41.540,task1,2021.2.3,60.01669664485117,
,,app,9,39,left,1.1668062999997346,Parsa,001,2025-04-19_09h15.41.540,task1,2021.2.3,60.01669664485117,
,,app,9,59,right,1.5375210999991396,Parsa,001,2025-04-19_09h15.41.540,task1,2021.2.3,60.01669664485117,
,,app,9,9,left,1.278011600001264,Parsa,001,2025-04-19_09h15.41.540,task1,2021.2.3,60.01669664485117,
,,app,9,79,right,1.08156659999986,Parsa,001,2025-04-19_09h15.41.540,task1,2021.2.3,60.01669664485117,
,,app,9,99,right,1.509525900000881,Parsa,001,2025-04-19_09h15.41.540,task1,2021.2.3,60.01669664485117,
,,app,9,49,right,0.9371747999994113,Parsa,001,2025-04-19_09h15.41.540,task1,2021.2.3,60.01669664485117,
,,app,9,9,left,0.3535290999989229,Parsa,001,2025-04-19_09h15.41.540,task1,2021.2.3,60.01669664485117,
,,app,9,59,right,1.3089937999993708,Parsa,001,2025-04-19_09h15.41.540,task1,2021.2.3,60.01669664485117,
,,app,9,39,left,0.6912300999993022,Parsa,001,2025-04-19_09h15.41.540,task1,2021.2.3,60.01669664485117,
,,app,9,99,right,0.3392273999997997,Parsa,001,2025-04-19_09h15.41.540,task1,2021.2.3,60.01669664485117,
,,app,9,9,left,1.5002331000014237,Parsa,001,2025-04-19_09h15.41.540,task1,2021.2.3,60.01669664485117,
,,app,9,79,right,0.617168099999617,Parsa,001,2025-04-19_09h15.41.540,task1,2021.2.3,60.01669664485117,
,,app,9,49,right,0.8819932000005792,Parsa,001,2025-04-19_09h15.41.540,task1,2021.2.3,60.01669664485117,
,,app,9,39,left,0.49399649999941175,Parsa,001,2025-04-19_09h15.41.540,task1,2021.2.3,60.01669664485117,
,,app,9,19,left,0.6966767000012624,Parsa,001,2025-04-19_09h15.41.540,task1,2021.2.3,60.01669664485117,
,,app,9,69,right,1.1977999999999156,Parsa,001,2025-04-19_09h15.41.540,task1,2021.2.3,60.01669664485117,
,,app,9,69,right,0.4636471999983769,Parsa,001,2025-04-19_09h15.41.540,task1,2021.2.3,60.01669664485117,
,,app,9,19,left,0.8240316000010353,Parsa,001,2025-04-19_09h15.41.540,task1,2021.2.3,60.01669664485117,
,,app,9,59,right,1.5029279999998835,Parsa,001,2025-04-19_09h15.41.540,task1,2021.2.3,60.01669664485117,
,,app,9,39,left,1.0533867000012833,Parsa,001,2025-04-19_09h15.41.540,task1,2021.2.3,60.01669664485117,
,,app,9,19,left,1.5649336999995285,Parsa,001,2025-04-19_09h15.41.540,task1,2021.2.3,60.01669664485117,
,,app,9,89,right,1.8503756000009162,Parsa,001,2025-04-19_09h15.41.540,task1,2021.2.3,60.01669664485117,
,,app,9,89,right,0.4160670000001119,Parsa,001,2025-04-19_09h15.41.540,task1,2021.2.3,60.01669664485117,
,,app,9,19,left,1.5974802000000636,Parsa,001,2025-04-19_09h15.41.540,task1,2021.2.3,60.01669664485117,
,,app,9,39,left,1.6536147999995592,Parsa,001,2025-04-19_09h15.41.540,task1,2021.2.3,60.01669664485117,
,,app,9,29,left,0.6414551000016218,Parsa,001,2025-04-19_09h15.41.540,task1,2021.2.3,60.01669664485117,
,,app,19,29,left,0.284604099999342,Parsa,001,2025-04-19_09h15.41.540,task1,2021.2.3,60.01669664485117,
,,app,19,89,right,0.5125622999985353,Parsa,001,2025-04-19_09h15.41.540,task1,2021.2.3,60.01669664485117,
,,app,19,99,right,0.4479255000005651,Parsa,001,2025-04-19_09h15.41.540,task1,2021.2.3,60.01669664485117,
,,app,19,99,right,0.35328560000016296,Parsa,001,2025-04-19_09h15.41.540,task1,2021.2.3,60.01669664485117,
,,app,19,49,left,1.062441599999147,Parsa,001,2025-04-19_09h15.41.540,task1,2021.2.3,60.01669664485117,
,,app,19,89,right,0.31954769999902055,Parsa,001,2025-04-19_09h15.41.540,task1,2021.2.3,60.01669664485117,
,,app,19,29,left,0.582350900000165,Parsa,001,2025-04-19_09h15.41.540,task1,2021.2.3,60.01669664485117,
,,app,19,79,right,0.3743274000007659,Parsa,001,2025-04-19_09h15.41.540,task1,2021.2.3,60.01669664485117,
,,app,19,49,left,0.38601870000093186,Parsa,001,2025-04-19_09h15.41.540,task1,2021.2.3,60.01669664485117,
,,app,19,9,left,0.2555188000005728,Parsa,001,2025-04-19_09h15.41.540,task1,2021.2.3,60.01669664485117,
,,app,19,9,left,0.38794620000044233,Parsa,001,2025-04-19_09h15.41.540,task1,2021.2.3,60.01669664485117,
,,app,19,99,right,0.35620360000029905,Parsa,001,2025-04-19_09h15.41.540,task1,2021.2.3,60.01669664485117,
,,app,19,79,right,0.3061374999997497,Parsa,001,2025-04-19_09h15.41.540,task1,2021.2.3,60.01669664485117,
,,app,19,29,left,0.37331799999992654,Parsa,001,2025-04-19_09h15.41.540,task1,2021.2.3,60.01669664485117,
,,app,19,99,right,1.9631173999987368,Parsa,001,2025-04-19_09h15.41.540,task1,2021.2.3,60.01669664485117,
,,app,19,99,right,0.017180000000735163,Parsa,001,2025-04-19_09h15.41.540,task1,2021.2.3,60.01669664485117,
,,app,19,9,left,0.3959782999991148,Parsa,001,2025-04-19_09h15.41.540,task1,2021.2.3,60.01669664485117,
,,app,19,69,right,0.3071551000011823,Parsa,001,2025-04-19_09h15.41.540,task1,2021.2.3,60.01669664485117,
,,app,19,69,right,0.25690580000082264,Parsa,001,2025-04-19_09h15.41.540,task1,2021.2.3,60.01669664485117,
,,app,19,59,right,0.44560590000037337,Parsa,001,2025-04-19_09h15.41.540,task1,2021.2.3,60.01669664485117,
,,app,19,29,left,0.214596600000732,Parsa,001,2025-04-19_09h15.41.540,task1,2021.2.3,60.01669664485117,
,,app,19,59,right,0.14122990000032587,Parsa,001,2025-04-19_09h15.41.540,task1,2021.2.3,60.01669664485117,
,,app,19,79,right,0.33495480000055977,Parsa,001,2025-04-19_09h15.41.540,task1,2021.2.3,60.01669664485117,
,,app,19,79,right,0.24992150000070978,Parsa,001,2025-04-19_09h15.41.540,task1,2021.2.3,60.01669664485117,
,,app,19,59,right,0.3182835999996314,Parsa,001,2025-04-19_09h15.41.540,task1,2021.2.3,60.01669664485117,
,,app,19,99,right,0.28540649999922607,Parsa,001,2025-04-19_09h15.41.540,task1,2021.2.3,60.01669664485117,
,,app,19,9,left,0.4187134000003425,Parsa,001,2025-04-19_09h15.41.540,task1,2021.2.3,60.01669664485117,
,,app,19,49,right,0.47843730000022333,Parsa,001,2025-04-19_09h15.41.540,task1,2021.2.3,60.01669664485117,
,,app,19,19,left,0.4090954999992391,Parsa,001,2025-04-19_09h15.41.540,task1,2021.2.3,60.01669664485117,
,,app,19,89,right,0.31980710000061663,Parsa,001,2025-04-19_09h15.41.540,task1,2021.2.3,60.01669664485117,
,,app,19,39,left,0.35444250000000466,Parsa,001,2025-04-19_09h15.41.540,task1,2021.2.3,60.01669664485117,
,,app,19,19,left,0.22314399999959278,Parsa,001,2025-04-19_09h15.41.540,task1,2021.2.3,60.01669664485117,
,,app,19,59,right,0.22238739999920654,Parsa,001,2025-04-19_09h15.41.540,task1,2021.2.3,60.01669664485117,
,,app,19,89,right,0.2205035000006319,Parsa,001,2025-04-19_09h15.41.540,task1,2021.2.3,60.01669664485117,
,,app,19,69,right,0.2530578999994759,Parsa,001,2025-04-19_09h15.41.540,task1,2021.2.3,60.01669664485117,
,,app,19,69,right,0.2302415000012843,Parsa,001,2025-04-19_09h15.41.540,task1,2021.2.3,60.01669664485117,
,,app,19,89,right,0.24039119999906688,Parsa,001,2025-04-19_09h15.41.540,task1,2021.2.3,60.01669664485117,
,,app,19,19,left,0.06204199999956472,Parsa,001,2025-04-19_09h15.41.540,task1,2021.2.3,60.01669664485117,
,,app,19,19,left,0.2179151999989699,Parsa,001,2025-04-19_09h15.41.540,task1,2021.2.3,60.01669664485117,
,,app,19,49,right,0.5249337000004743,Parsa,001,2025-04-19_09h15.41.540,task1,2021.2.3,60.01669664485117,
,,app,19,29,left,0.3813812999997026,Parsa,001,2025-04-19_09h15.41.540,task1,2021.2.3,60.01669664485117,
,,app,19,79,right,0.22968399999990652,Parsa,001,2025-04-19_09h15.41.540,task1,2021.2.3,60.01669664485117,
,,app,19,79,right,0.30609739999999874,Parsa,001,2025-04-19_09h15.41.540,task1,2021.2.3,60.01669664485117,
,,app,19,49,left,2.739725000001272,Parsa,001,2025-04-19_09h15.41.540,task1,2021.2.3,60.01669664485117,
,,app,19,49,left,0.8674522000001161,Parsa,001,2025-04-19_09h15.41.540,task1,2021.2.3,60.01669664485117,
,,app,19,69,right,0.27195229999961157,Parsa,001,2025-04-19_09h15.41.540,task1,2021.2.3,60.01669664485117,
,,app,19,79,right,0.3880619999999908,Parsa,001,2025-04-19_09h15.41.540,task1,2021.2.3,60.01669664485117,
,,app,19,89,right,0.4130736999995861,Parsa,001,2025-04-19_09h15.41.540,task1,2021.2.3,60.01669664485117,
,,app,19,39,left,0.9024099999987811,Parsa,001,2025-04-19_09h15.41.540,task1,2021.2.3,60.01669664485117,
,,app,19,79,right,0.2650089000017033,Parsa,001,2025-04-19_09h15.41.540,task1,2021.2.3,60.01669664485117,
,,app,19,19,left,0.44559900000058406,Parsa,001,2025-04-19_09h15.41.540,task1,2021.2.3,60.01669664485117,
,,app,19,59,right,0.34133700000165845,Parsa,001,2025-04-19_09h15.41.540,task1,2021.2.3,60.01669664485117,
,,app,19,89,right,0.2614209999992454,Parsa,001,2025-04-19_09h15.41.540,task1,2021.2.3,60.01669664485117,
,,app,19,49,left,0.8272064000011596,Parsa,001,2025-04-19_09h15.41.540,task1,2021.2.3,60.01669664485117,
,,app,19,69,right,0.9348891999998159,Parsa,001,2025-04-19_09h15.41.540,task1,2021.2.3,60.01669664485117,
,,app,19,19,left,0.2550021999995806,Parsa,001,2025-04-19_09h15.41.540,task1,2021.2.3,60.01669664485117,
,,app,19,19,left,0.25498530000004394,Parsa,001,2025-04-19_09h15.41.540,task1,2021.2.3,60.01669664485117,
,,app,19,39,left,0.34260189999986324,Parsa,001,2025-04-19_09h15.41.540,task1,2021.2.3,60.01669664485117,
,,app,19,39,left,0.23206840000057127,Parsa,001,2025-04-19_09h15.41.540,task1,2021.2.3,60.01669664485117,
,,app,19,19,left,0.28696689999924274,Parsa,001,2025-04-19_09h15.41.540,task1,2021.2.3,60.01669664485117,
,,app,19,79,right,0.26057089999994787,Parsa,001,2025-04-19_09h15.41.540,task1,2021.2.3,60.01669664485117,
,,app,19,39,left,0.5436751000015647,Parsa,001,2025-04-19_09h15.41.540,task1,2021.2.3,60.01669664485117,
,,app,19,29,left,0.4245719000009558,Parsa,001,2025-04-19_09h15.41.540,task1,2021.2.3,60.01669664485117,
,,app,19,49,left,1.0734161999989738,Parsa,001,2025-04-19_09h15.41.540,task1,2021.2.3,60.01669664485117,
,,app,19,79,right,0.19895259999975679,Parsa,001,2025-04-19_09h15.41.540,task1,2021.2.3,60.01669664485117,
,,app,19,59,right,0.6538860999989993,Parsa,001,2025-04-19_09h15.41.540,task1,2021.2.3,60.01669664485117,
,,app,19,49,right,0.6510952999997244,Parsa,001,2025-04-19_09h15.41.540,task1,2021.2.3,60.01669664485117,
,,app,19,69,right,0.17036430000007385,Parsa,001,2025-04-19_09h15.41.540,task1,2021.2.3,60.01669664485117,
,,app,19,39,left,0.4969240999998874,Parsa,001,2025-04-19_09h15.41.540,task1,2021.2.3,60.01669664485117,
,,app,19,99,right,0.24512180000056105,Parsa,001,2025-04-19_09h15.41.540,task1,2021.2.3,60.01669664485117,
,,app,19,9,left,0.07649649999984831,Parsa,001,2025-04-19_09h15.41.540,task1,2021.2.3,60.01669664485117,
,,app,19,19,left,0.2400748999989446,Parsa,001,2025-04-19_09h15.41.540,task1,2021.2.3,60.01669664485117,
,,app,19,49,right,0.27553789999910805,Parsa,001,2025-04-19_09h15.41.540,task1,2021.2.3,60.01669664485117,
,,app,19,99,right,0.11758449999979348,Parsa,001,2025-04-19_09h15.41.540,task1,2021.2.3,60.01669664485117,
,,app,19,29,left,0.23754600000029313,Parsa,001,2025-04-19_09h15.41.540,task1,2021.2.3,60.01669664485117,
,,app,19,89,right,0.3044797999991715,Parsa,001,2025-04-19_09h15.41.540,task1,2021.2.3,60.01669664485117,
,,app,19,9,left,0.1291120999994746,Parsa,001,2025-04-19_09h15.41.540,task1,2021.2.3,60.01669664485117,
,,app,19,59,right,0.2214389000000665,Parsa,001,2025-04-19_09h15.41.540,task1,2021.2.3,60.01669664485117,
,,app,19,99,right,0.28478290000020934,Parsa,001,2025-04-19_09h15.41.540,task1,2021.2.3,60.01669664485117,
,,app,19,89,right,0.25262180000027,Parsa,001,2025-04-19_09h15.41.540,task1,2021.2.3,60.01669664485117,
,,app,19,99,right,0.2385708000001614,Parsa,001,2025-04-19_09h15.41.540,task1,2021.2.3,60.01669664485117,
,,app,19,39,left,0.2329206999984308,Parsa,001,2025-04-19_09h15.41.540,task1,2021.2.3,60.01669664485117,
,,app,19,9,left,0.09376290000000154,Parsa,001,2025-04-19_09h15.41.540,task1,2021.2.3,60.01669664485117,
,,app,19,29,left,0.25255680000009306,Parsa,001,2025-04-19_09h15.41.540,task1,2021.2.3,60.01669664485117,
,,app,19,59,right,0.2425039999998262,Parsa,001,2025-04-19_09h15.41.540,task1,2021.2.3,60.01669664485117,
,,app,19,39,left,0.2313957999995182,Parsa,001,2025-04-19_09h15.41.540,task1,2021.2.3,60.01669664485117,
,,app,19,29,left,0.0758929999992688,Parsa,001,2025-04-19_09h15.41.540,task1,2021.2.3,60.01669664485117,
,,app,19,39,left,0.04814059999989695,Parsa,001,2025-04-19_09h15.41.540,task1,2021.2.3,60.01669664485117,
,,app,19,69,right,0.24610460000076273,Parsa,001,2025-04-19_09h15.41.540,task1,2021.2.3,60.01669664485117,
,,app,19,29,left,0.2670144000003347,Parsa,001,2025-04-19_09h15.41.540,task1,2021.2.3,60.01669664485117,
,,app,19,89,right,0.251564000000144,Parsa,001,2025-04-19_09h15.41.540,task1,2021.2.3,60.01669664485117,
,,app,19,9,left,0.4554647000004479,Parsa,001,2025-04-19_09h15.41.540,task1,2021.2.3,60.01669664485117,
,,app,19,69,right,0.47799380000105884,Parsa,001,2025-04-19_09h15.41.540,task1,2021.2.3,60.01669664485117,
,,app,19,69,right,0.12911150000036287,Parsa,001,2025-04-19_09h15.41.540,task1,2021.2.3,60.01669664485117,
,,app,19,59,right,0.286346599999888,Parsa,001,2025-04-19_09h15.41.540,task1,2021.2.3,60.01669664485117,
,,app,19,19,left,0.24804210000002058,Parsa,001,2025-04-19_09h15.41.540,task1,2021.2.3,60.01669664485117,
,,app,19,9,left,0.25916740000138816,Parsa,001,2025-04-19_09h15.41.540,task1,2021.2.3,60.01669664485117,
,,app,19,39,left,0.34235179999996035,Parsa,001,2025-04-19_09h15.41.540,task1,2021.2.3,60.01669664485117,
,,app,19,9,left,0.23584350000055565,Parsa,001,2025-04-19_09h15.41.540,task1,2021.2.3,60.01669664485117,
,,app,19,59,right,0.2947997999999643,Parsa,001,2025-04-19_09h15.41.540,task1,2021.2.3,60.01669664485117,
,,sha,9,89,right,0.5329768000010517,Parsa,001,2025-04-19_09h15.41.540,task1,2021.2.3,60.01669664485117,
,,sha,9,9,left,0.31338119999963965,Parsa,001,2025-04-19_09h15.41.540,task1,2021.2.3,60.01669664485117,
,,sha,9,19,left,0.17913190000035684,Parsa,001,2025-04-19_09h15.41.540,task1,2021.2.3,60.01669664485117,
,,sha,9,89,right,0.2313313000013295,Parsa,001,2025-04-19_09h15.41.540,task1,2021.2.3,60.01669664485117,
,,sha,9,79,right,0.1763383999987127,Parsa,001,2025-04-19_09h15.41.540,task1,2021.2.3,60.01669664485117,
,,sha,9,19,left,0.24963999999999942,Parsa,001,2025-04-19_09h15.41.540,task1,2021.2.3,60.01669664485117,
,,sha,9,49,left,0.5129685000010795,Parsa,001,2025-04-19_09h15.41.540,task1,2021.2.3,60.01669664485117,
,,sha,9,49,left,0.26690120000057505,Parsa,001,2025-04-19_09h15.41.540,task1,2021.2.3,60.01669664485117,
,,sha,9,19,left,0.23303039999882458,Parsa,001,2025-04-19_09h15.41.540,task1,2021.2.3,60.01669664485117,
,,sha,9,19,left,0.258391199999096,Parsa,001,2025-04-19_09h15.41.540,task1,2021.2.3,60.01669664485117,
,,sha,9,99,right,0.2348746999996365,Parsa,001,2025-04-19_09h15.41.540,task1,2021.2.3,60.01669664485117,
,,sha,9,9,left,0.34671720000005735,Parsa,001,2025-04-19_09h15.41.540,task1,2021.2.3,60.01669664485117,
,,sha,9,29,left,0.23679160000028787,Parsa,001,2025-04-19_09h15.41.540,task1,2021.2.3,60.01669664485117,
,,sha,9,29,left,0.22967230000176642,Parsa,001,2025-04-19_09h15.41.540,task1,2021.2.3,60.01669664485117,
,,sha,9,49,left,0.6194734000000608,Parsa,001,2025-04-19_09h15.41.540,task1,2021.2.3,60.01669664485117,
,,sha,9,49,right,0.357835900000282,Parsa,001,2025-04-19_09h15.41.540,task1,2021.2.3,60.01669664485117,
,,sha,9,9,left,0.1316372000001138,Parsa,001,2025-04-19_09h15.41.540,task1,2021.2.3,60.01669664485117,
,,sha,9,29,left,0.08157890000074985,Parsa,001,2025-04-19_09h15.41.540,task1,2021.2.3,60.01669664485117,
,,sha,9,9,left,0.13112419999924896,Parsa,001,2025-04-19_09h15.41.540,task1,2021.2.3,60.01669664485117,
,,sha,9,39,left,0.2622605000015028,Parsa,001,2025-04-19_09h15.41.540,task1,2021.2.3,60.01669664485117,
,,sha,9,59,right,0.01725359999909415,Parsa,001,2025-04-19_09h15.41.540,task1,2021.2.3,60.01669664485117,
,,sha,9,49,right,1.1768321999988984,Parsa,001,2025-04-19_09h15.41.540,task1,2021.2.3,60.01669664485117,
,,sha,9,79,right,0.14587079999910202,Parsa,001,2025-04-19_09h15.41.540,task1,2021.2.3,60.01669664485117,
,,sha,9,19,left,0.0548452000002726,Parsa,001,2025-04-19_09h15.41.540,task1,2021.2.3,60.01669664485117,
,,sha,9,9,left,0.04760730000089097,Parsa,001,2025-04-19_09h15.41.540,task1,2021.2.3,60.01669664485117,
,,sha,9,79,right,0.056143100000554114,Parsa,001,2025-04-19_09h15.41.540,task1,2021.2.3,60.01669664485117,
,,sha,9,29,left,0.06470379999882425,Parsa,001,2025-04-19_09h15.41.540,task1,2021.2.3,60.01669664485117,
,,sha,9,69,right,0.09955079999963345,Parsa,001,2025-04-19_09h15.41.540,task1,2021.2.3,60.01669664485117,
,,sha,9,59,right,0.45009050000044226,Parsa,001,2025-04-19_09h15.41.540,task1,2021.2.3,60.01669664485117,
,,sha,9,59,right,0.1964760999999271,Parsa,001,2025-04-19_09h15.41.540,task1,2021.2.3,60.01669664485117,
,,sha,9,69,right,0.2406474999988859,Parsa,001,2025-04-19_09h15.41.540,task1,2021.2.3,60.01669664485117,
,,sha,9,9,left,0.07714750000013737,Parsa,001,2025-04-19_09h15.41.540,task1,2021.2.3,60.01669664485117,
,,sha,9,69,right,0.26077340000119875,Parsa,001,2025-04-19_09h15.41.540,task1,2021.2.3,60.01669664485117,
,,sha,9,59,right,0.0680726999999024,Parsa,001,2025-04-19_09h15.41.540,task1,2021.2.3,60.01669664485117,
,,sha,9,19,left,0.08590410000033444,Parsa,001,2025-04-19_09h15.41.540,task1,2021.2.3,60.01669664485117,
,,sha,9,39,left,0.47844679999980144,Parsa,001,2025-04-19_09h15.41.540,task1,2021.2.3,60.01669664485117,
,,sha,9,49,left,0.05454739999913727,Parsa,001,2025-04-19_09h15.41.540,task1,2021.2.3,60.01669664485117,
,,sha,9,99,right,0.17835120000017923,Parsa,001,2025-04-19_09h15.41.540,task1,2021.2.3,60.01669664485117,
,,sha,9,39,left,0.04181379999863566,Parsa,001,2025-04-19_09h15.41.540,task1,2021.2.3,60.01669664485117,
,,sha,9,39,left,0.14313860000038403,Parsa,001,2025-04-19_09h15.41.540,task1,2021.2.3,60.01669664485117,
,,sha,9,39,left,0.1246833000004699,Parsa,001,2025-04-19_09h15.41.540,task1,2021.2.3,60.01669664485117,
,,sha,9,39,left,0.07031079999978829,Parsa,001,2025-04-19_09h15.41.540,task1,2021.2.3,60.01669664485117,
,,sha,9,69,right,0.09521909999966738,Parsa,001,2025-04-19_09h15.41.540,task1,2021.2.3,60.01669664485117,
,,sha,9,99,right,0.03893489999973099,Parsa,001,2025-04-19_09h15.41.540,task1,2021.2.3,60.01669664485117,
,,sha,9,9,left,0.04052849999970931,Parsa,001,2025-04-19_09h15.41.540,task1,2021.2.3,60.01669664485117,
,,sha,9,69,right,0.015631599999323953,Parsa,001,2025-04-19_09h15.41.540,task1,2021.2.3,60.01669664485117,
,,sha,9,9,left,0.01653500000065833,Parsa,001,2025-04-19_09h15.41.540,task1,2021.2.3,60.01669664485117,
,,sha,9,89,right,0.0003345000004628673,Parsa,001,2025-04-19_09h15.41.540,task1,2021.2.3,60.01669664485117,
,,sha,9,89,right,0.10022759999992559,Parsa,001,2025-04-19_09h15.41.540,task1,2021.2.3,60.01669664485117,
,,sha,9,39,left,0.07968729999993229,Parsa,001,2025-04-19_09h15.41.540,task1,2021.2.3,60.01669664485117,
,,sha,9,79,right,0.182264999999461,Parsa,001,2025-04-19_09h15.41.540,task1,2021.2.3,60.01669664485117,
,,sha,9,89,right,0.1571193999989191,Parsa,001,2025-04-19_09h15.41.540,task1,2021.2.3,60.01669664485117,
,,sha,9,89,right,0.1670536000001448,Parsa,001,2025-04-19_09h15.41.540,task1,2021.2.3,60.01669664485117,
,,sha,9,79,right,0.0778403000003891,Parsa,001,2025-04-19_09h15.41.540,task1,2021.2.3,60.01669664485117,
,,sha,9,19,left,0.19476600000052713,Parsa,001,2025-04-19_09h15.41.540,task1,2021.2.3,60.01669664485117,
,,sha,9,99,right,0.08477660000062315,Parsa,001,2025-04-19_09h15.41.540,task1,2021.2.3,60.01669664485117,
,,sha,9,69,right,0.1811280000001716,Parsa,001,2025-04-19_09h15.41.540,task1,2021.2.3,60.01669664485117,
,,sha,9,99,right,0.18650509999861242,Parsa,001,2025-04-19_09h15.41.540,task1,2021.2.3,60.01669664485117,
,,sha,9,29,left,0.4346310999990237,Parsa,001,2025-04-19_09h15.41.540,task1,2021.2.3,60.01669664485117,
,,sha,9,19,left,0.254813199999262,Parsa,001,2025-04-19_09h15.41.540,task1,2021.2.3,60.01669664485117,
,,sha,9,29,left,0.21735930000068038,Parsa,001,2025-04-19_09h15.41.540,task1,2021.2.3,60.01669664485117,
,,sha,9,9,left,0.21864190000087547,Parsa,001,2025-04-19_09h15.41.540,task1,2021.2.3,60.01669664485117,
,,sha,9,79,right,0.47366370000054303,Parsa,001,2025-04-19_09h15.41.540,task1,2021.2.3,60.01669664485117,
,,sha,9,59,right,0.3966665000007197,Parsa,001,2025-04-19_09h15.41.540,task1,2021.2.3,60.01669664485117,
,,sha,9,59,right,0.19000539999979082,Parsa,001,2025-04-19_09h15.41.540,task1,2021.2.3,60.01669664485117,
,,sha,9,49,right,0.24830390000170155,Parsa,001,2025-04-19_09h15.41.540,task1,2021.2.3,60.01669664485117,
,,sha,9,79,right,0.09891310000057274,Parsa,001,2025-04-19_09h15.41.540,task1,2021.2.3,60.01669664485117,
,,sha,9,69,right,0.10325120000015886,Parsa,001,2025-04-19_09h15.41.540,task1,2021.2.3,60.01669664485117,
,,sha,9,49,left,0.26537829999870155,Parsa,001,2025-04-19_09h15.41.540,task1,2021.2.3,60.01669664485117,
,,sha,9,99,right,0.07285380000030273,Parsa,001,2025-04-19_09h15.41.540,task1,2021.2.3,60.01669664485117,
,,sha,9,79,right,0.16120589999991353,Parsa,001,2025-04-19_09h15.41.540,task1,2021.2.3,60.01669664485117,
,,sha,9,69,right,0.040687299999262905,Parsa,001,2025-04-19_09h15.41.540,task1,2021.2.3,60.01669664485117,
,,sha,9,29,left,0.22032369999942603,Parsa,001,2025-04-19_09h15.41.540,task1,2021.2.3,60.01669664485117,
,,sha,9,99,right,0.1699902000000293,Parsa,001,2025-04-19_09h15.41.540,task1,2021.2.3,60.01669664485117,
,,sha,9,39,left,0.15387039999950503,Parsa,001,2025-04-19_09h15.41.540,task1,2021.2.3,60.01669664485117,
,,sha,9,69,right,0.19367229999988922,Parsa,001,2025-04-19_09h15.41.540,task1,2021.2.3,60.01669664485117,
,,sha,9,39,left,0.07376140000087616,Parsa,001,2025-04-19_09h15.41.540,task1,2021.2.3,60.01669664485117,
,,sha,9,69,right,0.10615010000037728,Parsa,001,2025-04-19_09h15.41.540,task1,2021.2.3,60.01669664485117,
,,sha,9,89,right,0.3767642999991949,Parsa,001,2025-04-19_09h15.41.540,task1,2021.2.3,60.01669664485117,
,,sha,9,29,left,0.07687319999968167,Parsa,001,2025-04-19_09h15.41.540,task1,2021.2.3,60.01669664485117,
,,sha,9,79,right,0.18151600000055623,Parsa,001,2025-04-19_09h15.41.540,task1,2021.2.3,60.01669664485117,
,,sha,9,99,right,0.18539679999958025,Parsa,001,2025-04-19_09h15.41.540,task1,2021.2.3,60.01669664485117,
,,sha,9,49,left,0.0737781999996514,Parsa,001,2025-04-19_09h15.41.540,task1,2021.2.3,60.01669664485117,
,,sha,9,9,left,0.11861560000033933,Parsa,001,2025-04-19_09h15.41.540,task1,2021.2.3,60.01669664485117,
,,sha,9,89,right,0.19257920000018203,Parsa,001,2025-04-19_09h15.41.540,task1,2021.2.3,60.01669664485117,
,,sha,9,49,left,0.24059350000061386,Parsa,001,2025-04-19_09h15.41.540,task1,2021.2.3,60.01669664485117,
,,sha,9,59,left,0.28048090000083903,Parsa,001,2025-04-19_09h15.41.540,task1,2021.2.3,60.01669664485117,
,,sha,9,39,left,0.10998429999926884,Parsa,001,2025-04-19_09h15.41.540,task1,2021.2.3,60.01669664485117,
,,sha,9,99,right,0.18047229999865522,Parsa,001,2025-04-19_09h15.41.540,task1,2021.2.3,60.01669664485117,
,,sha,9,29,left,0.2207151000002341,Parsa,001,2025-04-19_09h15.41.540,task1,2021.2.3,60.01669664485117,
,,sha,9,19,left,0.2376507999997557,Parsa,001,2025-04-19_09h15.41.540,task1,2021.2.3,60.01669664485117,
,,sha,9,59,right,0.7031646000014007,Parsa,001,2025-04-19_09h15.41.540,task1,2021.2.3,60.01669664485117,
,,sha,9,19,left,0.1796265000011772,Parsa,001,2025-04-19_09h15.41.540,task1,2021.2.3,60.01669664485117,
,,sha,9,59,right,0.23765519999869866,Parsa,001,2025-04-19_09h15.41.540,task1,2021.2.3,60.01669664485117,
,,sha,9,29,left,0.26852449999933015,Parsa,001,2025-04-19_09h15.41.540,task1,2021.2.3,60.01669664485117,
,,sha,9,89,right,0.1799269999992248,Parsa,001,2025-04-19_09h15.41.540,task1,2021.2.3,60.01669664485117,
,,sha,9,59,right,0.5612853999991785,Parsa,001,2025-04-19_09h15.41.540,task1,2021.2.3,60.01669664485117,
,,sha,9,79,right,0.20354559999941557,Parsa,001,2025-04-19_09h15.41.540,task1,2021.2.3,60.01669664485117,
,,sha,9,99,right,0.2506644999994023,Parsa,001,2025-04-19_09h15.41.540,task1,2021.2.3,60.01669664485117,
,,sha,9,89,right,0.23546559999886085,Parsa,001,2025-04-19_09h15.41.540,task1,2021.2.3,60.01669664485117,
,,sha,19,39,right,1.2022904999994353,Parsa,001,2025-04-19_09h15.41.540,task1,2021.2.3,60.01669664485117,
,,sha,19,29,left,1.0412231999998767,Parsa,001,2025-04-19_09h15.41.540,task1,2021.2.3,60.01669664485117,
,,sha,19,19,left,1.1357475999993767,Parsa,001,2025-04-19_09h15.41.540,task1,2021.2.3,60.01669664485117,
,,sha,19,39,left,0.24014419999912207,Parsa,001,2025-04-19_09h15.41.540,task1,2021.2.3,60.01669664485117,
,,sha,19,99,right,0.3549683000001096,Parsa,001,2025-04-19_09h15.41.540,task1,2021.2.3,60.01669664485117,
,,sha,19,79,right,0.34635269999853335,Parsa,001,2025-04-19_09h15.41.540,task1,2021.2.3,60.01669664485117,
,,sha,19,49,left,0.37554939999972703,Parsa,001,2025-04-19_09h15.41.540,task1,2021.2.3,60.01669664485117,
,,sha,19,39,left,0.3134233000000677,Parsa,001,2025-04-19_09h15.41.540,task1,2021.2.3,60.01669664485117,
,,sha,19,29,left,0.4841543000002275,Parsa,001,2025-04-19_09h15.41.540,task1,2021.2.3,60.01669664485117,
,,sha,19,49,left,0.17320769999969343,Parsa,001,2025-04-19_09h15.41.540,task1,2021.2.3,60.01669664485117,
,,sha,19,19,right,0.8971388999998453,Parsa,001,2025-04-19_09h15.41.540,task1,2021.2.3,60.01669664485117,
,,sha,19,79,right,0.27194349999990663,Parsa,001,2025-04-19_09h15.41.540,task1,2021.2.3,60.01669664485117,
,,sha,19,59,right,0.5307952999992267,Parsa,001,2025-04-19_09h15.41.540,task1,2021.2.3,60.01669664485117,
,,sha,19,99,right,0.31659919999947306,Parsa,001,2025-04-19_09h15.41.540,task1,2021.2.3,60.01669664485117,
,,sha,19,39,left,0.4128147000010358,Parsa,001,2025-04-19_09h15.41.540,task1,2021.2.3,60.01669664485117,
,,sha,19,9,left,0.3540800999999192,Parsa,001,2025-04-19_09h15.41.540,task1,2021.2.3,60.01669664485117,
,,sha,19,49,left,0.3768930999995064,Parsa,001,2025-04-19_09h15.41.540,task1,2021.2.3,60.01669664485117,
,,sha,19,69,left,0.08048130000133824,Parsa,001,2025-04-19_09h15.41.540,task1,2021.2.3,60.01669664485117,
,,sha,19,99,right,0.17598870000074385,Parsa,001,2025-04-19_09h15.41.540,task1,2021.2.3,60.01669664485117,
,,sha,19,79,right,0.17019650000111142,Parsa,001,2025-04-19_09h15.41.540,task1,2021.2.3,60.01669664485117,
,,sha,19,69,right,0.08635770000000775,Parsa,001,2025-04-19_09h15.41.540,task1,2021.2.3,60.01669664485117,
,,sha,19,59,right,0.43199040000035893,Parsa,001,2025-04-19_09h15.41.540,task1,2021.2.3,60.01669664485117,
,,sha,19,59,right,0.34506580000015674,Parsa,001,2025-04-19_09h15.41.540,task1,2021.2.3,60.01669664485117,
,,sha,19,89,right,0.19922890000088955,Parsa,001,2025-04-19_09h15.41.540,task1,2021.2.3,60.01669664485117,
,,sha,19,29,left,0.13206149999859917,Parsa,001,2025-04-19_09h15.41.540,task1,2021.2.3,60.01669664485117,
,,sha,19,49,right,0.26715059999878576,Parsa,001,2025-04-19_09h15.41.540,task1,2021.2.3,60.01669664485117,
,,sha,19,89,right,0.26155629999993835,Parsa,001,2025-04-19_09h15.41.540,task1,2021.2.3,60.01669664485117,
,,sha,19,89,right,0.060819899999842164,Parsa,001,2025-04-19_09h15.41.540,task1,2021.2.3,60.01669664485117,
,,sha,19,39,left,0.1591348999991169,Parsa,001,2025-04-19_09h15.41.540,task1,2021.2.3,60.01669664485117,
,,sha,19,79,right,0.2236514000014722,Parsa,001,2025-04-19_09h15.41.540,task1,2021.2.3,60.01669664485117,
,,sha,19,49,left,0.8541468999992503,Parsa,001,2025-04-19_09h15.41.540,task1,2021.2.3,60.01669664485117,
,,sha,19,89,right,0.1838342000010016,Parsa,001,2025-04-19_09h15.41.540,task1,2021.2.3,60.01669664485117,
,,sha,19,19,left,0.2600112000000081,Parsa,001,2025-04-19_09h15.41.540,task1,2021.2.3,60.01669664485117,
,,sha,19,99,right,0.16321849999985716,Parsa,001,2025-04-19_09h15.41.540,task1,2021.2.3,60.01669664485117,
,,sha,19,19,left,0.5037909999991825,Parsa,001,2025-04-19_09h15.41.540,task1,2021.2.3,60.01669664485117,
,,sha,19,69,right,0.23429219999889028,Parsa,001,2025-04-19_09h15.41.540,task1,2021.2.3,60.01669664485117,
,,sha,19,29,left,0.2654397999995126,Parsa,001,2025-04-19_09h15.41.540,task1,2021.2.3,60.01669664485117,
,,sha,19,9,left,0.6311158999997133,Parsa,001,2025-04-19_09h15.41.540,task1,2021.2.3,60.01669664485117,
,,sha,19,29,left,0.4517980999989959,Parsa,001,2025-04-19_09h15.41.540,task1,2021.2.3,60.01669664485117,
,,sha,19,89,right,0.23583250000046974,Parsa,001,2025-04-19_09h15.41.540,task1,2021.2.3,60.01669664485117,
,,sha,19,59,right,1.92919190000066,Parsa,001,2025-04-19_09h15.41.540,task1,2021.2.3,60.01669664485117,
,,sha,19,59,right,1.2305350999995426,Parsa,001,2025-04-19_09h15.41.540,task1,2021.2.3,60.01669664485117,
,,sha,19,29,left,0.23756739999953425,Parsa,001,2025-04-19_09h15.41.540,task1,2021.2.3,60.01669664485117,
,,sha,19,9,left,0.6073504000014509,Parsa,001,2025-04-19_09h15.41.540,task1,2021.2.3,60.01669664485117,
,,sha,19,59,right,0.24440369999865652,Parsa,001,2025-04-19_09h15.41.540,task1,2021.2.3,60.01669664485117,
,,sha,19,39,left,0.22409249999873282,Parsa,001,2025-04-19_09h15.41.540,task1,2021.2.3,60.01669664485117,
,,sha,19,99,right,0.27017760000126145,Parsa,001,2025-04-19_09h15.41.540,task1,2021.2.3,60.01669664485117,
,,sha,19,89,right,1.1592946000000666,Parsa,001,2025-04-19_09h15.41.540,task1,2021.2.3,60.01669664485117,
,,sha,19,69,right,0.269543700000213,Parsa,001,2025-04-19_09h15.41.540,task1,2021.2.3,60.01669664485117,
,,sha,19,29,left,1.0774431000008917,Parsa,001,2025-04-19_09h15.41.540,task1,2021.2.3,60.01669664485117,
,,sha,19,89,right,0.31249469999966095,Parsa,001,2025-04-19_09h15.41.540,task1,2021.2.3,60.01669664485117,
,,sha,19,79,right,0.36758929999996326,Parsa,001,2025-04-19_09h15.41.540,task1,2021.2.3,60.01669664485117,
,,sha,19,69,right,0.28846859999976004,Parsa,001,2025-04-19_09h15.41.540,task1,2021.2.3,60.01669664485117,
,,sha,19,9,left,0.18978729999980715,Parsa,001,2025-04-19_09h15.41.540,task1,2021.2.3,60.01669664485117,
,,sha,19,79,right,0.3397510000013426,Parsa,001,2025-04-19_09h15.41.540,task1,2021.2.3,60.01669664485117,
,,sha,19,39,left,0.06362750000153028,Parsa,001,2025-04-19_09h15.41.540,task1,2021.2.3,60.01669664485117,
,,sha,19,59,right,0.30258969999886176,Parsa,001,2025-04-19_09h15.41.540,task1,2021.2.3,60.01669664485117,
,,sha,19,9,left,0.23050639999928535,Parsa,001,2025-04-19_09h15.41.540,task1,2021.2.3,60.01669664485117,
,,sha,19,19,left,0.2537177999984124,Parsa,001,2025-04-19_09h15.41.540,task1,2021.2.3,60.01669664485117,
,,sha,19,89,right,0.26905279999846243,Parsa,001,2025-04-19_09h15.41.540,task1,2021.2.3,60.01669664485117,
,,sha,19,89,right,0.7464047000012215,Parsa,001,2025-04-19_09h15.41.540,task1,2021.2.3,60.01669664485117,
,,sha,19,79,right,0.2401238000002195,Parsa,001,2025-04-19_09h15.41.540,task1,2021.2.3,60.01669664485117,
,,sha,19,19,left,0.19364329999916663,Parsa,001,2025-04-19_09h15.41.540,task1,2021.2.3,60.01669664485117,
,,sha,19,19,left,0.23169319999942672,Parsa,001,2025-04-19_09h15.41.540,task1,2021.2.3,60.01669664485117,
,,sha,19,49,left,0.22582140000122308,Parsa,001,2025-04-19_09h15.41.540,task1,2021.2.3,60.01669664485117,
,,sha,19,99,right,0.19880600000033155,Parsa,001,2025-04-19_09h15.41.540,task1,2021.2.3,60.01669664485117,
,,sha,19,79,right,0.25168420000045444,Parsa,001,2025-04-19_09h15.41.540,task1,2021.2.3,60.01669664485117,
,,sha,19,59,right,1.3784745000011753,Parsa,001,2025-04-19_09h15.41.540,task1,2021.2.3,60.01669664485117,
,,sha,19,49,right,0.4472895000017161,Parsa,001,2025-04-19_09h15.41.540,task1,2021.2.3,60.01669664485117,
,,sha,19,19,left,0.7436656000008952,Parsa,001,2025-04-19_09h15.41.540,task1,2021.2.3,60.01669664485117,
,,sha,19,39,left,0.14685239999926125,Parsa,001,2025-04-19_09h15.41.540,task1,2021.2.3,60.01669664485117,
,,sha,19,29,left,0.16365749999931722,Parsa,001,2025-04-19_09h15.41.540,task1,2021.2.3,60.01669664485117,
,,sha,19,49,left,0.15971859999990556,Parsa,001,2025-04-19_09h15.41.540,task1,2021.2.3,60.01669664485117,
,,sha,19,49,left,0.0750052000003052,Parsa,001,2025-04-19_09h15.41.540,task1,2021.2.3,60.01669664485117,
,,sha,19,59,left,0.8257501000007323,Parsa,001,2025-04-19_09h15.41.540,task1,2021.2.3,60.01669664485117,
,,sha,19,9,left,0.27361539999947126,Parsa,001,2025-04-19_09h15.41.540,task1,2021.2.3,60.01669664485117,
,,sha,19,49,left,0.2444355000006908,Parsa,001,2025-04-19_09h15.41.540,task1,2021.2.3,60.01669664485117,
,,sha,19,29,left,0.3162871999993513,Parsa,001,2025-04-19_09h15.41.540,task1,2021.2.3,60.01669664485117,
,,sha,19,9,left,0.2267678000007436,Parsa,001,2025-04-19_09h15.41.540,task1,2021.2.3,60.01669664485117,
,,sha,19,99,right,0.21663300000000163,Parsa,001,2025-04-19_09h15.41.540,task1,2021.2.3,60.01669664485117,
,,sha,19,59,right,0.16664660000060394,Parsa,001,2025-04-19_09h15.41.540,task1,2021.2.3,60.01669664485117,
,,sha,19,9,left,0.21719800000028044,Parsa,001,2025-04-19_09h15.41.540,task1,2021.2.3,60.01669664485117,
,,sha,19,99,right,0.17089540000051784,Parsa,001,2025-04-19_09h15.41.540,task1,2021.2.3,60.01669664485117,
,,sha,19,9,left,0.2113785999990796,Parsa,001,2025-04-19_09h15.41.540,task1,2021.2.3,60.01669664485117,
,,sha,19,99,right,0.16599570000107633,Parsa,001,2025-04-19_09h15.41.540,task1,2021.2.3,60.01669664485117,
,,sha,19,69,right,0.1698517000004358,Parsa,001,2025-04-19_09h15.41.540,task1,2021.2.3,60.01669664485117,
,,sha,19,69,right,0.08097760000055132,Parsa,001,2025-04-19_09h15.41.540,task1,2021.2.3,60.01669664485117,
,,sha,19,39,left,0.309015000000727,Parsa,001,2025-04-19_09h15.41.540,task1,2021.2.3,60.01669664485117,
,,sha,19,9,left,0.2465835999992123,Parsa,001,2025-04-19_09h15.41.540,task1,2021.2.3,60.01669664485117,
,,sha,19,99,right,0.22288119999939227,Parsa,001,2025-04-19_09h15.41.540,task1,2021.2.3,60.01669664485117,
,,sha,19,89,right,0.5368144999993092,Parsa,001,2025-04-19_09h15.41.540,task1,2021.2.3,60.01669664485117,
,,sha,19,79,right,0.21658229999957257,Parsa,001,2025-04-19_09h15.41.540,task1,2021.2.3,60.01669664485117,
,,sha,19,69,right,0.16927120000036666,Parsa,001,2025-04-19_09h15.41.540,task1,2021.2.3,60.01669664485117,
,,sha,19,39,left,0.2079623999998148,Parsa,001,2025-04-19_09h15.41.540,task1,2021.2.3,60.01669664485117,
,,sha,19,69,right,0.2231368000011571,Parsa,001,2025-04-19_09h15.41.540,task1,2021.2.3,60.01669664485117,
,,sha,19,19,left,0.1286939000001439,Parsa,001,2025-04-19_09h15.41.540,task1,2021.2.3,60.01669664485117,
,,sha,19,79,right,0.2487914000012097,Parsa,001,2025-04-19_09h15.41.540,task1,2021.2.3,60.01669664485117,
,,sha,19,69,right,0.7904333000005863,Parsa,001,2025-04-19_09h15.41.540,task1,2021.2.3,60.01669664485117,
,,sha,19,19,left,0.07357360000059998,Parsa,001,2025-04-19_09h15.41.540,task1,2021.2.3,60.01669664485117,
,,sha,19,29,left,0.23630779999984952,Parsa,001,2025-04-19_09h15.41.540,task1,2021.2.3,60.01669664485117,
