thisRow.t,notes,folder,feature,morph_level,response_key,rt,participant,session,date,expName,psychopyVersion,frameRate,
,,app,9,19,left,1.4536137000000053,pr11,001,2025-04-19_08h02.08.565,task1,2021.2.3,60.02094731055167,
,,app,9,49,right,0.6827885000002425,pr11,001,2025-04-19_08h02.08.565,task1,2021.2.3,60.02094731055167,
,,app,9,59,right,0.7237213000003067,pr11,001,2025-04-19_08h02.08.565,task1,2021.2.3,60.02094731055167,
,,app,9,9,left,0.4869237000002613,pr11,001,2025-04-19_08h02.08.565,task1,2021.2.3,60.02094731055167,
,,app,9,89,right,0.45066289999977016,pr11,001,2025-04-19_08h02.08.565,task1,2021.2.3,60.02094731055167,
,,app,9,39,left,0.8529475000000275,pr11,001,2025-04-19_08h02.08.565,task1,2021.2.3,60.02094731055167,
,,app,9,69,right,0.09993609999992259,pr11,001,2025-04-19_08h02.08.565,task1,2021.2.3,60.02094731055167,
,,app,9,69,right,0.16754059999993842,pr11,001,2025-04-19_08h02.08.565,task1,2021.2.3,60.02094731055167,
,,app,9,79,right,1.5948256000001493,pr11,001,2025-04-19_08h02.08.565,task1,2021.2.3,60.02094731055167,
,,app,9,99,right,0.5281840000002376,pr11,001,2025-04-19_08h02.08.565,task1,2021.2.3,60.02094731055167,
,,app,9,79,right,0.49673359999997047,pr11,001,2025-04-19_08h02.08.565,task1,2021.2.3,60.02094731055167,
,,app,9,69,right,0.4162183999997069,pr11,001,2025-04-19_08h02.08.565,task1,2021.2.3,60.02094731055167,
,,app,9,49,right,2.4415750999996817,pr11,001,2025-04-19_08h02.08.565,task1,2021.2.3,60.02094731055167,
,,app,9,19,left,0.14145659999985583,pr11,001,2025-04-19_08h02.08.565,task1,2021.2.3,60.02094731055167,
,,app,9,59,right,0.12597120000009454,pr11,001,2025-04-19_08h02.08.565,task1,2021.2.3,60.02094731055167,
,,app,9,49,left,1.6182095999997728,pr11,001,2025-04-19_08h02.08.565,task1,2021.2.3,60.02094731055167,
,,app,9,39,left,0.32386270000006334,pr11,001,2025-04-19_08h02.08.565,task1,2021.2.3,60.02094731055167,
,,app,9,19,left,0.1615831999997681,pr11,001,2025-04-19_08h02.08.565,task1,2021.2.3,60.02094731055167,
,,app,9,69,right,0.07941800000025978,pr11,001,2025-04-19_08h02.08.565,task1,2021.2.3,60.02094731055167,
,,app,9,59,right,0.6021385000003647,pr11,001,2025-04-19_08h02.08.565,task1,2021.2.3,60.02094731055167,
,,app,9,59,right,0.34599329999991824,pr11,001,2025-04-19_08h02.08.565,task1,2021.2.3,60.02094731055167,
,,app,9,49,right,1.9439511999999013,pr11,001,2025-04-19_08h02.08.565,task1,2021.2.3,60.02094731055167,
,,app,9,69,right,0.3949164999999084,pr11,001,2025-04-19_08h02.08.565,task1,2021.2.3,60.02094731055167,
,,app,9,79,right,0.08011479999959192,pr11,001,2025-04-19_08h02.08.565,task1,2021.2.3,60.02094731055167,
,,app,9,59,right,1.4033973999999034,pr11,001,2025-04-19_08h02.08.565,task1,2021.2.3,60.02094731055167,
,,app,9,49,left,0.4795205000000351,pr11,001,2025-04-19_08h02.08.565,task1,2021.2.3,60.02094731055167,
,,app,9,59,right,0.29588349999994534,pr11,001,2025-04-19_08h02.08.565,task1,2021.2.3,60.02094731055167,
,,app,9,29,left,0.30005709999977626,pr11,001,2025-04-19_08h02.08.565,task1,2021.2.3,60.02094731055167,
,,app,9,89,right,0.29844490000004953,pr11,001,2025-04-19_08h02.08.565,task1,2021.2.3,60.02094731055167,
,,app,9,89,right,0.298786199999995,pr11,001,2025-04-19_08h02.08.565,task1,2021.2.3,60.02094731055167,
,,app,9,79,right,0.2571832000003269,pr11,001,2025-04-19_08h02.08.565,task1,2021.2.3,60.02094731055167,
,,app,9,99,right,0.4778670000000602,pr11,001,2025-04-19_08h02.08.565,task1,2021.2.3,60.02094731055167,
,,app,9,29,left,0.2459248000000116,pr11,001,2025-04-19_08h02.08.565,task1,2021.2.3,60.02094731055167,
,,app,9,9,left,0.22861379999994824,pr11,001,2025-04-19_08h02.08.565,task1,2021.2.3,60.02094731055167,
,,app,9,59,right,0.2594026000001577,pr11,001,2025-04-19_08h02.08.565,task1,2021.2.3,60.02094731055167,
,,app,9,69,right,0.24009339999975055,pr11,001,2025-04-19_08h02.08.565,task1,2021.2.3,60.02094731055167,
,,app,9,29,left,0.09252460000016072,pr11,001,2025-04-19_08h02.08.565,task1,2021.2.3,60.02094731055167,
,,app,9,99,right,0.1985672999999224,pr11,001,2025-04-19_08h02.08.565,task1,2021.2.3,60.02094731055167,
,,app,9,79,right,0.30752750000010565,pr11,001,2025-04-19_08h02.08.565,task1,2021.2.3,60.02094731055167,
,,app,9,19,left,0.24633989999983896,pr11,001,2025-04-19_08h02.08.565,task1,2021.2.3,60.02094731055167,
,,app,9,49,right,0.6266265999997813,pr11,001,2025-04-19_08h02.08.565,task1,2021.2.3,60.02094731055167,
,,app,9,39,left,0.5838549000000057,pr11,001,2025-04-19_08h02.08.565,task1,2021.2.3,60.02094731055167,
,,app,9,89,right,0.23821360000010827,pr11,001,2025-04-19_08h02.08.565,task1,2021.2.3,60.02094731055167,
,,app,9,79,right,0.3341065999998136,pr11,001,2025-04-19_08h02.08.565,task1,2021.2.3,60.02094731055167,
,,app,9,89,right,0.2552808999998888,pr11,001,2025-04-19_08h02.08.565,task1,2021.2.3,60.02094731055167,
,,app,9,89,right,0.22021470000026966,pr11,001,2025-04-19_08h02.08.565,task1,2021.2.3,60.02094731055167,
,,app,9,29,left,0.06059959999993225,pr11,001,2025-04-19_08h02.08.565,task1,2021.2.3,60.02094731055167,
,,app,9,99,right,0.2541329999999107,pr11,001,2025-04-19_08h02.08.565,task1,2021.2.3,60.02094731055167,
,,app,9,89,right,0.24214789999996356,pr11,001,2025-04-19_08h02.08.565,task1,2021.2.3,60.02094731055167,
,,app,9,9,left,0.25049300000000585,pr11,001,2025-04-19_08h02.08.565,task1,2021.2.3,60.02094731055167,
,,app,9,29,left,0.3012397000002238,pr11,001,2025-04-19_08h02.08.565,task1,2021.2.3,60.02094731055167,
,,app,9,79,right,0.20460599999978513,pr11,001,2025-04-19_08h02.08.565,task1,2021.2.3,60.02094731055167,
,,app,9,9,left,0.19242399999984627,pr11,001,2025-04-19_08h02.08.565,task1,2021.2.3,60.02094731055167,
,,app,9,49,left,0.2287003999999797,pr11,001,2025-04-19_08h02.08.565,task1,2021.2.3,60.02094731055167,
,,app,9,39,left,0.27774170000020604,pr11,001,2025-04-19_08h02.08.565,task1,2021.2.3,60.02094731055167,
,,app,9,89,right,0.24224360000016532,pr11,001,2025-04-19_08h02.08.565,task1,2021.2.3,60.02094731055167,
,,app,9,19,left,0.15354729999990013,pr11,001,2025-04-19_08h02.08.565,task1,2021.2.3,60.02094731055167,
,,app,9,39,left,0.22624649999988833,pr11,001,2025-04-19_08h02.08.565,task1,2021.2.3,60.02094731055167,
,,app,9,19,left,0.11569190000000162,pr11,001,2025-04-19_08h02.08.565,task1,2021.2.3,60.02094731055167,
,,app,9,29,left,0.2734037999998691,pr11,001,2025-04-19_08h02.08.565,task1,2021.2.3,60.02094731055167,
,,app,9,39,left,0.9101187000001119,pr11,001,2025-04-19_08h02.08.565,task1,2021.2.3,60.02094731055167,
,,app,9,9,left,0.2592162000000826,pr11,001,2025-04-19_08h02.08.565,task1,2021.2.3,60.02094731055167,
,,app,9,19,left,0.10714540000026318,pr11,001,2025-04-19_08h02.08.565,task1,2021.2.3,60.02094731055167,
,,app,9,69,right,0.26875029999973776,pr11,001,2025-04-19_08h02.08.565,task1,2021.2.3,60.02094731055167,
,,app,9,39,left,0.6281357999996544,pr11,001,2025-04-19_08h02.08.565,task1,2021.2.3,60.02094731055167,
,,app,9,29,left,0.2388994999996612,pr11,001,2025-04-19_08h02.08.565,task1,2021.2.3,60.02094731055167,
,,app,9,99,right,0.2601248000000851,pr11,001,2025-04-19_08h02.08.565,task1,2021.2.3,60.02094731055167,
,,app,9,29,left,0.2311677999996391,pr11,001,2025-04-19_08h02.08.565,task1,2021.2.3,60.02094731055167,
,,app,9,29,left,0.194403400000283,pr11,001,2025-04-19_08h02.08.565,task1,2021.2.3,60.02094731055167,
,,app,9,99,right,0.20231250000006185,pr11,001,2025-04-19_08h02.08.565,task1,2021.2.3,60.02094731055167,
,,app,9,89,right,0.2730329000000893,pr11,001,2025-04-19_08h02.08.565,task1,2021.2.3,60.02094731055167,
,,app,9,39,left,0.7560686000001624,pr11,001,2025-04-19_08h02.08.565,task1,2021.2.3,60.02094731055167,
,,app,9,59,right,0.43620789999977205,pr11,001,2025-04-19_08h02.08.565,task1,2021.2.3,60.02094731055167,
,,app,9,49,right,0.9746006000000307,pr11,001,2025-04-19_08h02.08.565,task1,2021.2.3,60.02094731055167,
,,app,9,9,left,0.2605880999999499,pr11,001,2025-04-19_08h02.08.565,task1,2021.2.3,60.02094731055167,
,,app,9,9,left,0.21856730000035896,pr11,001,2025-04-19_08h02.08.565,task1,2021.2.3,60.02094731055167,
,,app,9,9,left,0.17841999999973268,pr11,001,2025-04-19_08h02.08.565,task1,2021.2.3,60.02094731055167,
,,app,9,79,right,0.120419899999888,pr11,001,2025-04-19_08h02.08.565,task1,2021.2.3,60.02094731055167,
,,app,9,79,right,1.0016467000000375,pr11,001,2025-04-19_08h02.08.565,task1,2021.2.3,60.02094731055167,
,,app,9,9,left,0.4864015000002837,pr11,001,2025-04-19_08h02.08.565,task1,2021.2.3,60.02094731055167,
,,app,9,19,left,0.22124129999974684,pr11,001,2025-04-19_08h02.08.565,task1,2021.2.3,60.02094731055167,
,,app,9,39,left,0.27019609999979366,pr11,001,2025-04-19_08h02.08.565,task1,2021.2.3,60.02094731055167,
,,app,9,89,right,0.17118459999983315,pr11,001,2025-04-19_08h02.08.565,task1,2021.2.3,60.02094731055167,
,,app,9,99,right,0.18995970000014495,pr11,001,2025-04-19_08h02.08.565,task1,2021.2.3,60.02094731055167,
,,app,9,69,right,0.2355504000001929,pr11,001,2025-04-19_08h02.08.565,task1,2021.2.3,60.02094731055167,
,,app,9,99,right,0.28287120000004506,pr11,001,2025-04-19_08h02.08.565,task1,2021.2.3,60.02094731055167,
,,app,9,49,right,0.359114899999895,pr11,001,2025-04-19_08h02.08.565,task1,2021.2.3,60.02094731055167,
,,app,9,59,right,0.2532933999996203,pr11,001,2025-04-19_08h02.08.565,task1,2021.2.3,60.02094731055167,
,,app,9,69,right,0.25573670000039783,pr11,001,2025-04-19_08h02.08.565,task1,2021.2.3,60.02094731055167,
,,app,9,9,left,0.23563740000008693,pr11,001,2025-04-19_08h02.08.565,task1,2021.2.3,60.02094731055167,
,,app,9,19,left,0.22729460000027757,pr11,001,2025-04-19_08h02.08.565,task1,2021.2.3,60.02094731055167,
,,app,9,79,right,0.1912821000000804,pr11,001,2025-04-19_08h02.08.565,task1,2021.2.3,60.02094731055167,
,,app,9,69,right,0.12417340000001786,pr11,001,2025-04-19_08h02.08.565,task1,2021.2.3,60.02094731055167,
,,app,9,19,left,0.47225509999998394,pr11,001,2025-04-19_08h02.08.565,task1,2021.2.3,60.02094731055167,
,,app,9,99,right,0.23094859999991968,pr11,001,2025-04-19_08h02.08.565,task1,2021.2.3,60.02094731055167,
,,app,9,99,right,0.20585780000010345,pr11,001,2025-04-19_08h02.08.565,task1,2021.2.3,60.02094731055167,
,,app,9,49,left,0.30080260000022463,pr11,001,2025-04-19_08h02.08.565,task1,2021.2.3,60.02094731055167,
,,app,9,29,left,0.20224030000008497,pr11,001,2025-04-19_08h02.08.565,task1,2021.2.3,60.02094731055167,
,,app,9,59,right,1.040387699999883,pr11,001,2025-04-19_08h02.08.565,task1,2021.2.3,60.02094731055167,
,,app,9,39,left,0.8014945999998417,pr11,001,2025-04-19_08h02.08.565,task1,2021.2.3,60.02094731055167,
,,app,19,49,right,1.2283581000001504,pr11,001,2025-04-19_08h02.08.565,task1,2021.2.3,60.02094731055167,
,,app,19,9,left,0.3442510999998376,pr11,001,2025-04-19_08h02.08.565,task1,2021.2.3,60.02094731055167,
,,app,19,99,right,0.2300828000002184,pr11,001,2025-04-19_08h02.08.565,task1,2021.2.3,60.02094731055167,
,,app,19,49,right,1.9464303999998265,pr11,001,2025-04-19_08h02.08.565,task1,2021.2.3,60.02094731055167,
,,app,19,89,right,0.4302068000001782,pr11,001,2025-04-19_08h02.08.565,task1,2021.2.3,60.02094731055167,
,,app,19,99,right,0.21737750000011147,pr11,001,2025-04-19_08h02.08.565,task1,2021.2.3,60.02094731055167,
,,app,19,29,left,0.2552190999999766,pr11,001,2025-04-19_08h02.08.565,task1,2021.2.3,60.02094731055167,
,,app,19,39,left,0.024765799999840965,pr11,001,2025-04-19_08h02.08.565,task1,2021.2.3,60.02094731055167,
,,app,19,19,left,0.23058450000007724,pr11,001,2025-04-19_08h02.08.565,task1,2021.2.3,60.02094731055167,
,,app,19,9,left,0.21100750000005064,pr11,001,2025-04-19_08h02.08.565,task1,2021.2.3,60.02094731055167,
,,app,19,39,left,0.5365607999997337,pr11,001,2025-04-19_08h02.08.565,task1,2021.2.3,60.02094731055167,
,,app,19,29,left,0.3223127999999633,pr11,001,2025-04-19_08h02.08.565,task1,2021.2.3,60.02094731055167,
,,app,19,59,right,0.29603850000012244,pr11,001,2025-04-19_08h02.08.565,task1,2021.2.3,60.02094731055167,
,,app,19,89,right,0.22783660000004602,pr11,001,2025-04-19_08h02.08.565,task1,2021.2.3,60.02094731055167,
,,app,19,99,right,0.23105759999998554,pr11,001,2025-04-19_08h02.08.565,task1,2021.2.3,60.02094731055167,
,,app,19,99,right,0.262837700000091,pr11,001,2025-04-19_08h02.08.565,task1,2021.2.3,60.02094731055167,
,,app,19,99,right,0.2475002000001041,pr11,001,2025-04-19_08h02.08.565,task1,2021.2.3,60.02094731055167,
,,app,19,9,left,0.26082339999993565,pr11,001,2025-04-19_08h02.08.565,task1,2021.2.3,60.02094731055167,
,,app,19,69,right,0.33749260000013237,pr11,001,2025-04-19_08h02.08.565,task1,2021.2.3,60.02094731055167,
,,app,19,79,right,0.2902793999996902,pr11,001,2025-04-19_08h02.08.565,task1,2021.2.3,60.02094731055167,
,,app,19,9,left,0.2143594999997731,pr11,001,2025-04-19_08h02.08.565,task1,2021.2.3,60.02094731055167,
,,app,19,89,right,0.23681159999978263,pr11,001,2025-04-19_08h02.08.565,task1,2021.2.3,60.02094731055167,
,,app,19,89,right,0.19354509999993752,pr11,001,2025-04-19_08h02.08.565,task1,2021.2.3,60.02094731055167,
,,app,19,9,left,0.27300490000016,pr11,001,2025-04-19_08h02.08.565,task1,2021.2.3,60.02094731055167,
,,app,19,29,left,0.3273555999999189,pr11,001,2025-04-19_08h02.08.565,task1,2021.2.3,60.02094731055167,
,,app,19,79,right,0.19412839999995413,pr11,001,2025-04-19_08h02.08.565,task1,2021.2.3,60.02094731055167,
,,app,19,29,left,0.17359080000005633,pr11,001,2025-04-19_08h02.08.565,task1,2021.2.3,60.02094731055167,
,,app,19,69,right,0.12931870000011259,pr11,001,2025-04-19_08h02.08.565,task1,2021.2.3,60.02094731055167,
,,app,19,99,right,0.24263990000008562,pr11,001,2025-04-19_08h02.08.565,task1,2021.2.3,60.02094731055167,
,,app,19,69,right,0.27298289999998815,pr11,001,2025-04-19_08h02.08.565,task1,2021.2.3,60.02094731055167,
,,app,19,99,right,0.20638060000010228,pr11,001,2025-04-19_08h02.08.565,task1,2021.2.3,60.02094731055167,
,,app,19,39,left,0.34078239999962534,pr11,001,2025-04-19_08h02.08.565,task1,2021.2.3,60.02094731055167,
,,app,19,89,right,0.1858676000001651,pr11,001,2025-04-19_08h02.08.565,task1,2021.2.3,60.02094731055167,
,,app,19,79,right,0.014506400000300346,pr11,001,2025-04-19_08h02.08.565,task1,2021.2.3,60.02094731055167,
,,app,19,59,right,0.2886255999997047,pr11,001,2025-04-19_08h02.08.565,task1,2021.2.3,60.02094731055167,
,,app,19,89,right,0.16420479999987947,pr11,001,2025-04-19_08h02.08.565,task1,2021.2.3,60.02094731055167,
,,app,19,19,left,0.12527670000008584,pr11,001,2025-04-19_08h02.08.565,task1,2021.2.3,60.02094731055167,
,,app,19,19,left,0.2430197000003318,pr11,001,2025-04-19_08h02.08.565,task1,2021.2.3,60.02094731055167,
,,app,19,39,left,0.3099886999998489,pr11,001,2025-04-19_08h02.08.565,task1,2021.2.3,60.02094731055167,
,,app,19,9,left,0.16856520000010278,pr11,001,2025-04-19_08h02.08.565,task1,2021.2.3,60.02094731055167,
,,app,19,69,right,0.03595309999991514,pr11,001,2025-04-19_08h02.08.565,task1,2021.2.3,60.02094731055167,
,,app,19,89,right,0.14143369999965216,pr11,001,2025-04-19_08h02.08.565,task1,2021.2.3,60.02094731055167,
,,app,19,79,right,0.5650848999998743,pr11,001,2025-04-19_08h02.08.565,task1,2021.2.3,60.02094731055167,
,,app,19,49,right,0.15517449999970268,pr11,001,2025-04-19_08h02.08.565,task1,2021.2.3,60.02094731055167,
,,app,19,19,left,0.12880889999996725,pr11,001,2025-04-19_08h02.08.565,task1,2021.2.3,60.02094731055167,
,,app,19,49,left,0.5946481000000858,pr11,001,2025-04-19_08h02.08.565,task1,2021.2.3,60.02094731055167,
,,app,19,59,left,0.552727700000105,pr11,001,2025-04-19_08h02.08.565,task1,2021.2.3,60.02094731055167,
,,app,19,99,right,0.21913260000019363,pr11,001,2025-04-19_08h02.08.565,task1,2021.2.3,60.02094731055167,
,,app,19,19,left,0.23385800000005474,pr11,001,2025-04-19_08h02.08.565,task1,2021.2.3,60.02094731055167,
,,app,19,39,left,0.3020817999999963,pr11,001,2025-04-19_08h02.08.565,task1,2021.2.3,60.02094731055167,
,,app,19,59,right,0.2980308999999579,pr11,001,2025-04-19_08h02.08.565,task1,2021.2.3,60.02094731055167,
,,app,19,29,right,0.1883429999998043,pr11,001,2025-04-19_08h02.08.565,task1,2021.2.3,60.02094731055167,
,,app,19,19,left,0.2244714999997086,pr11,001,2025-04-19_08h02.08.565,task1,2021.2.3,60.02094731055167,
,,app,19,29,left,0.19450670000014725,pr11,001,2025-04-19_08h02.08.565,task1,2021.2.3,60.02094731055167,
,,app,19,79,right,0.19486490000008416,pr11,001,2025-04-19_08h02.08.565,task1,2021.2.3,60.02094731055167,
,,app,19,59,right,0.2346239000003152,pr11,001,2025-04-19_08h02.08.565,task1,2021.2.3,60.02094731055167,
,,app,19,49,right,0.2113059000002977,pr11,001,2025-04-19_08h02.08.565,task1,2021.2.3,60.02094731055167,
,,app,19,19,left,0.23795900000004622,pr11,001,2025-04-19_08h02.08.565,task1,2021.2.3,60.02094731055167,
,,app,19,29,left,0.2542656000000534,pr11,001,2025-04-19_08h02.08.565,task1,2021.2.3,60.02094731055167,
,,app,19,39,left,0.3372285999998894,pr11,001,2025-04-19_08h02.08.565,task1,2021.2.3,60.02094731055167,
,,app,19,59,left,0.4015153000000282,pr11,001,2025-04-19_08h02.08.565,task1,2021.2.3,60.02094731055167,
,,app,19,39,left,0.5105139000002055,pr11,001,2025-04-19_08h02.08.565,task1,2021.2.3,60.02094731055167,
,,app,19,39,left,0.28053940000017974,pr11,001,2025-04-19_08h02.08.565,task1,2021.2.3,60.02094731055167,
,,app,19,59,right,0.21594450000020515,pr11,001,2025-04-19_08h02.08.565,task1,2021.2.3,60.02094731055167,
,,app,19,79,right,0.18981529999973645,pr11,001,2025-04-19_08h02.08.565,task1,2021.2.3,60.02094731055167,
,,app,19,99,right,0.3497596999995949,pr11,001,2025-04-19_08h02.08.565,task1,2021.2.3,60.02094731055167,
,,app,19,29,left,0.15501670000003287,pr11,001,2025-04-19_08h02.08.565,task1,2021.2.3,60.02094731055167,
,,app,19,69,right,0.31124080000017784,pr11,001,2025-04-19_08h02.08.565,task1,2021.2.3,60.02094731055167,
,,app,19,49,right,0.792507900000146,pr11,001,2025-04-19_08h02.08.565,task1,2021.2.3,60.02094731055167,
,,app,19,69,right,0.20313110000006418,pr11,001,2025-04-19_08h02.08.565,task1,2021.2.3,60.02094731055167,
,,app,19,89,right,0.20560699999987264,pr11,001,2025-04-19_08h02.08.565,task1,2021.2.3,60.02094731055167,
,,app,19,9,left,0.26906419999977516,pr11,001,2025-04-19_08h02.08.565,task1,2021.2.3,60.02094731055167,
,,app,19,9,left,0.30832139999984065,pr11,001,2025-04-19_08h02.08.565,task1,2021.2.3,60.02094731055167,
,,app,19,19,left,0.24012760000005073,pr11,001,2025-04-19_08h02.08.565,task1,2021.2.3,60.02094731055167,
,,app,19,69,left,0.4003938000000744,pr11,001,2025-04-19_08h02.08.565,task1,2021.2.3,60.02094731055167,
,,app,19,39,left,0.6582756000002519,pr11,001,2025-04-19_08h02.08.565,task1,2021.2.3,60.02094731055167,
,,app,19,29,left,0.31998299999986557,pr11,001,2025-04-19_08h02.08.565,task1,2021.2.3,60.02094731055167,
,,app,19,99,right,0.23902730000008887,pr11,001,2025-04-19_08h02.08.565,task1,2021.2.3,60.02094731055167,
,,app,19,49,left,0.45485770000004777,pr11,001,2025-04-19_08h02.08.565,task1,2021.2.3,60.02094731055167,
,,app,19,89,right,0.1789158999999927,pr11,001,2025-04-19_08h02.08.565,task1,2021.2.3,60.02094731055167,
,,app,19,49,left,0.23523059999979523,pr11,001,2025-04-19_08h02.08.565,task1,2021.2.3,60.02094731055167,
,,app,19,69,right,0.29731089999995675,pr11,001,2025-04-19_08h02.08.565,task1,2021.2.3,60.02094731055167,
,,app,19,9,left,0.23616770000035103,pr11,001,2025-04-19_08h02.08.565,task1,2021.2.3,60.02094731055167,
,,app,19,49,left,0.7359354000000167,pr11,001,2025-04-19_08h02.08.565,task1,2021.2.3,60.02094731055167,
,,app,19,79,right,0.25768820000030246,pr11,001,2025-04-19_08h02.08.565,task1,2021.2.3,60.02094731055167,
,,app,19,29,left,0.339840500000264,pr11,001,2025-04-19_08h02.08.565,task1,2021.2.3,60.02094731055167,
,,app,19,79,right,0.24646050000001196,pr11,001,2025-04-19_08h02.08.565,task1,2021.2.3,60.02094731055167,
,,app,19,89,right,0.3328540000002249,pr11,001,2025-04-19_08h02.08.565,task1,2021.2.3,60.02094731055167,
,,app,19,9,left,0.2663260999997874,pr11,001,2025-04-19_08h02.08.565,task1,2021.2.3,60.02094731055167,
,,app,19,49,left,0.47915370000009716,pr11,001,2025-04-19_08h02.08.565,task1,2021.2.3,60.02094731055167,
,,app,19,19,left,0.270995800000037,pr11,001,2025-04-19_08h02.08.565,task1,2021.2.3,60.02094731055167,
,,app,19,59,right,0.7100940000000264,pr11,001,2025-04-19_08h02.08.565,task1,2021.2.3,60.02094731055167,
,,app,19,19,left,0.2777736999996705,pr11,001,2025-04-19_08h02.08.565,task1,2021.2.3,60.02094731055167,
,,app,19,59,right,0.32530739999992875,pr11,001,2025-04-19_08h02.08.565,task1,2021.2.3,60.02094731055167,
,,app,19,79,right,0.3017208999999639,pr11,001,2025-04-19_08h02.08.565,task1,2021.2.3,60.02094731055167,
,,app,19,79,right,0.05247880000024452,pr11,001,2025-04-19_08h02.08.565,task1,2021.2.3,60.02094731055167,
,,app,19,69,right,0.21737230000007912,pr11,001,2025-04-19_08h02.08.565,task1,2021.2.3,60.02094731055167,
,,app,19,39,left,0.07805850000022474,pr11,001,2025-04-19_08h02.08.565,task1,2021.2.3,60.02094731055167,
,,app,19,69,right,0.23734430000013162,pr11,001,2025-04-19_08h02.08.565,task1,2021.2.3,60.02094731055167,
,,app,19,59,right,0.13393279999991137,pr11,001,2025-04-19_08h02.08.565,task1,2021.2.3,60.02094731055167,
,,sha,9,89,right,0.5506632000001446,pr11,001,2025-04-19_08h02.08.565,task1,2021.2.3,60.02094731055167,
,,sha,9,99,right,0.2611527999997634,pr11,001,2025-04-19_08h02.08.565,task1,2021.2.3,60.02094731055167,
,,sha,9,49,left,0.3119903999995586,pr11,001,2025-04-19_08h02.08.565,task1,2021.2.3,60.02094731055167,
,,sha,9,49,left,0.7174678999999742,pr11,001,2025-04-19_08h02.08.565,task1,2021.2.3,60.02094731055167,
,,sha,9,49,left,0.5897624999997788,pr11,001,2025-04-19_08h02.08.565,task1,2021.2.3,60.02094731055167,
,,sha,9,29,left,0.3493546999998216,pr11,001,2025-04-19_08h02.08.565,task1,2021.2.3,60.02094731055167,
,,sha,9,19,left,0.3582994999997027,pr11,001,2025-04-19_08h02.08.565,task1,2021.2.3,60.02094731055167,
,,sha,9,9,left,0.16988900000069407,pr11,001,2025-04-19_08h02.08.565,task1,2021.2.3,60.02094731055167,
,,sha,9,9,left,0.22753569999986212,pr11,001,2025-04-19_08h02.08.565,task1,2021.2.3,60.02094731055167,
,,sha,9,99,right,0.1737446999995882,pr11,001,2025-04-19_08h02.08.565,task1,2021.2.3,60.02094731055167,
,,sha,9,9,left,0.7974549999998999,pr11,001,2025-04-19_08h02.08.565,task1,2021.2.3,60.02094731055167,
,,sha,9,59,right,0.6359745999998268,pr11,001,2025-04-19_08h02.08.565,task1,2021.2.3,60.02094731055167,
,,sha,9,29,right,1.1825984000006429,pr11,001,2025-04-19_08h02.08.565,task1,2021.2.3,60.02094731055167,
,,sha,9,69,right,0.12820789999932458,pr11,001,2025-04-19_08h02.08.565,task1,2021.2.3,60.02094731055167,
,,sha,9,79,right,0.0005148000000190223,pr11,001,2025-04-19_08h02.08.565,task1,2021.2.3,60.02094731055167,
,,sha,9,39,left,0.4763919999995778,pr11,001,2025-04-19_08h02.08.565,task1,2021.2.3,60.02094731055167,
,,sha,9,69,right,0.22806459999992512,pr11,001,2025-04-19_08h02.08.565,task1,2021.2.3,60.02094731055167,
,,sha,9,99,right,0.24997499999972206,pr11,001,2025-04-19_08h02.08.565,task1,2021.2.3,60.02094731055167,
,,sha,9,89,right,0.1292899000000034,pr11,001,2025-04-19_08h02.08.565,task1,2021.2.3,60.02094731055167,
,,sha,9,39,left,0.22626760000002832,pr11,001,2025-04-19_08h02.08.565,task1,2021.2.3,60.02094731055167,
,,sha,9,39,left,0.2627495999995517,pr11,001,2025-04-19_08h02.08.565,task1,2021.2.3,60.02094731055167,
,,sha,9,59,right,0.3166979000006904,pr11,001,2025-04-19_08h02.08.565,task1,2021.2.3,60.02094731055167,
,,sha,9,89,right,0.2874168999996982,pr11,001,2025-04-19_08h02.08.565,task1,2021.2.3,60.02094731055167,
,,sha,9,79,right,0.001098900000215508,pr11,001,2025-04-19_08h02.08.565,task1,2021.2.3,60.02094731055167,
,,sha,9,29,left,0.2254398000004585,pr11,001,2025-04-19_08h02.08.565,task1,2021.2.3,60.02094731055167,
,,sha,9,99,right,0.1990869000001112,pr11,001,2025-04-19_08h02.08.565,task1,2021.2.3,60.02094731055167,
,,sha,9,49,left,0.47261149999940244,pr11,001,2025-04-19_08h02.08.565,task1,2021.2.3,60.02094731055167,
,,sha,9,99,right,0.22644100000070466,pr11,001,2025-04-19_08h02.08.565,task1,2021.2.3,60.02094731055167,
,,sha,9,79,right,0.4249340000005759,pr11,001,2025-04-19_08h02.08.565,task1,2021.2.3,60.02094731055167,
,,sha,9,19,left,0.23300100000051316,pr11,001,2025-04-19_08h02.08.565,task1,2021.2.3,60.02094731055167,
,,sha,9,69,right,0.3484491999997772,pr11,001,2025-04-19_08h02.08.565,task1,2021.2.3,60.02094731055167,
,,sha,9,99,right,0.10005249999994703,pr11,001,2025-04-19_08h02.08.565,task1,2021.2.3,60.02094731055167,
,,sha,9,59,right,0.11143510000056267,pr11,001,2025-04-19_08h02.08.565,task1,2021.2.3,60.02094731055167,
,,sha,9,89,right,0.17165439999916998,pr11,001,2025-04-19_08h02.08.565,task1,2021.2.3,60.02094731055167,
,,sha,9,79,right,0.27164039999934175,pr11,001,2025-04-19_08h02.08.565,task1,2021.2.3,60.02094731055167,
,,sha,9,29,left,0.310972799999945,pr11,001,2025-04-19_08h02.08.565,task1,2021.2.3,60.02094731055167,
,,sha,9,29,left,0.11568429999988439,pr11,001,2025-04-19_08h02.08.565,task1,2021.2.3,60.02094731055167,
,,sha,9,9,left,0.47515629999998055,pr11,001,2025-04-19_08h02.08.565,task1,2021.2.3,60.02094731055167,
,,sha,9,79,right,0.18217989999993733,pr11,001,2025-04-19_08h02.08.565,task1,2021.2.3,60.02094731055167,
,,sha,9,49,left,0.42918030000055296,pr11,001,2025-04-19_08h02.08.565,task1,2021.2.3,60.02094731055167,
,,sha,9,59,left,0.26547869999922113,pr11,001,2025-04-19_08h02.08.565,task1,2021.2.3,60.02094731055167,
,,sha,9,59,left,0.23405040000034205,pr11,001,2025-04-19_08h02.08.565,task1,2021.2.3,60.02094731055167,
,,sha,9,69,right,0.1986683000004632,pr11,001,2025-04-19_08h02.08.565,task1,2021.2.3,60.02094731055167,
,,sha,9,79,right,0.09847970000009809,pr11,001,2025-04-19_08h02.08.565,task1,2021.2.3,60.02094731055167,
,,sha,9,19,left,0.22468649999973422,pr11,001,2025-04-19_08h02.08.565,task1,2021.2.3,60.02094731055167,
,,sha,9,59,right,1.003366900000401,pr11,001,2025-04-19_08h02.08.565,task1,2021.2.3,60.02094731055167,
,,sha,9,79,right,0.1652619999995295,pr11,001,2025-04-19_08h02.08.565,task1,2021.2.3,60.02094731055167,
,,sha,9,89,right,0.18640839999989112,pr11,001,2025-04-19_08h02.08.565,task1,2021.2.3,60.02094731055167,
,,sha,9,99,right,0.22587750000002416,pr11,001,2025-04-19_08h02.08.565,task1,2021.2.3,60.02094731055167,
,,sha,9,89,right,1.0646929999993517,pr11,001,2025-04-19_08h02.08.565,task1,2021.2.3,60.02094731055167,
,,sha,9,29,left,0.04525069999999687,pr11,001,2025-04-19_08h02.08.565,task1,2021.2.3,60.02094731055167,
,,sha,9,89,right,0.381356699999742,pr11,001,2025-04-19_08h02.08.565,task1,2021.2.3,60.02094731055167,
,,sha,9,49,left,0.23529299999972864,pr11,001,2025-04-19_08h02.08.565,task1,2021.2.3,60.02094731055167,
,,sha,9,69,right,0.33071969999946305,pr11,001,2025-04-19_08h02.08.565,task1,2021.2.3,60.02094731055167,
,,sha,9,69,right,0.31772860000000946,pr11,001,2025-04-19_08h02.08.565,task1,2021.2.3,60.02094731055167,
,,sha,9,59,right,0.5007248000001709,pr11,001,2025-04-19_08h02.08.565,task1,2021.2.3,60.02094731055167,
,,sha,9,99,right,0.3029878000006647,pr11,001,2025-04-19_08h02.08.565,task1,2021.2.3,60.02094731055167,
,,sha,9,69,right,0.18861920000017562,pr11,001,2025-04-19_08h02.08.565,task1,2021.2.3,60.02094731055167,
,,sha,9,39,left,0.2507274999998117,pr11,001,2025-04-19_08h02.08.565,task1,2021.2.3,60.02094731055167,
,,sha,9,19,left,0.2656463999992411,pr11,001,2025-04-19_08h02.08.565,task1,2021.2.3,60.02094731055167,
,,sha,9,49,left,0.3966580000005706,pr11,001,2025-04-19_08h02.08.565,task1,2021.2.3,60.02094731055167,
,,sha,9,79,right,0.2485724999996819,pr11,001,2025-04-19_08h02.08.565,task1,2021.2.3,60.02094731055167,
,,sha,9,89,right,0.020350900000266847,pr11,001,2025-04-19_08h02.08.565,task1,2021.2.3,60.02094731055167,
,,sha,9,89,right,1.0230624000005264,pr11,001,2025-04-19_08h02.08.565,task1,2021.2.3,60.02094731055167,
,,sha,9,9,left,0.8138028000003033,pr11,001,2025-04-19_08h02.08.565,task1,2021.2.3,60.02094731055167,
,,sha,9,49,right,0.11379909999959636,pr11,001,2025-04-19_08h02.08.565,task1,2021.2.3,60.02094731055167,
,,sha,9,69,right,1.4762225999993461,pr11,001,2025-04-19_08h02.08.565,task1,2021.2.3,60.02094731055167,
,,sha,9,39,left,0.2910179000000426,pr11,001,2025-04-19_08h02.08.565,task1,2021.2.3,60.02094731055167,
,,sha,9,69,right,1.2437149999996109,pr11,001,2025-04-19_08h02.08.565,task1,2021.2.3,60.02094731055167,
,,sha,9,79,right,0.2102123999993637,pr11,001,2025-04-19_08h02.08.565,task1,2021.2.3,60.02094731055167,
,,sha,9,19,left,0.26554810000016005,pr11,001,2025-04-19_08h02.08.565,task1,2021.2.3,60.02094731055167,
,,sha,9,9,left,0.202035799999976,pr11,001,2025-04-19_08h02.08.565,task1,2021.2.3,60.02094731055167,
,,sha,9,49,left,0.25096209999992425,pr11,001,2025-04-19_08h02.08.565,task1,2021.2.3,60.02094731055167,
,,sha,9,99,right,0.08487739999964106,pr11,001,2025-04-19_08h02.08.565,task1,2021.2.3,60.02094731055167,
,,sha,9,69,right,0.0900259999998525,pr11,001,2025-04-19_08h02.08.565,task1,2021.2.3,60.02094731055167,
,,sha,9,19,left,0.24209869999958755,pr11,001,2025-04-19_08h02.08.565,task1,2021.2.3,60.02094731055167,
,,sha,9,9,left,0.21423289999984263,pr11,001,2025-04-19_08h02.08.565,task1,2021.2.3,60.02094731055167,
,,sha,9,29,left,0.14302520000001095,pr11,001,2025-04-19_08h02.08.565,task1,2021.2.3,60.02094731055167,
,,sha,9,29,left,0.057087300000603136,pr11,001,2025-04-19_08h02.08.565,task1,2021.2.3,60.02094731055167,
,,sha,9,79,right,1.6746673000006922,pr11,001,2025-04-19_08h02.08.565,task1,2021.2.3,60.02094731055167,
,,sha,9,9,left,0.046013599999241706,pr11,001,2025-04-19_08h02.08.565,task1,2021.2.3,60.02094731055167,
,,sha,9,29,left,0.17707319999954052,pr11,001,2025-04-19_08h02.08.565,task1,2021.2.3,60.02094731055167,
,,sha,9,39,left,0.3542271999995137,pr11,001,2025-04-19_08h02.08.565,task1,2021.2.3,60.02094731055167,
,,sha,9,59,left,0.3793699999996534,pr11,001,2025-04-19_08h02.08.565,task1,2021.2.3,60.02094731055167,
,,sha,9,9,left,0.04765640000005078,pr11,001,2025-04-19_08h02.08.565,task1,2021.2.3,60.02094731055167,
,,sha,9,19,left,0.05129140000008192,pr11,001,2025-04-19_08h02.08.565,task1,2021.2.3,60.02094731055167,
,,sha,9,39,left,0.220084699999461,pr11,001,2025-04-19_08h02.08.565,task1,2021.2.3,60.02094731055167,
,,sha,9,39,left,0.16166200000043318,pr11,001,2025-04-19_08h02.08.565,task1,2021.2.3,60.02094731055167,
,,sha,9,59,left,0.7379996999998184,pr11,001,2025-04-19_08h02.08.565,task1,2021.2.3,60.02094731055167,
,,sha,9,19,left,0.24470709999968676,pr11,001,2025-04-19_08h02.08.565,task1,2021.2.3,60.02094731055167,
,,sha,9,49,left,1.0541405999993003,pr11,001,2025-04-19_08h02.08.565,task1,2021.2.3,60.02094731055167,
,,sha,9,39,left,0.34819619999962015,pr11,001,2025-04-19_08h02.08.565,task1,2021.2.3,60.02094731055167,
,,sha,9,19,left,0.818972300000496,pr11,001,2025-04-19_08h02.08.565,task1,2021.2.3,60.02094731055167,
,,sha,9,99,right,0.291960100000324,pr11,001,2025-04-19_08h02.08.565,task1,2021.2.3,60.02094731055167,
,,sha,9,39,left,0.180440300000555,pr11,001,2025-04-19_08h02.08.565,task1,2021.2.3,60.02094731055167,
,,sha,9,29,left,0.29628950000005716,pr11,001,2025-04-19_08h02.08.565,task1,2021.2.3,60.02094731055167,
,,sha,9,19,left,0.22130230000038864,pr11,001,2025-04-19_08h02.08.565,task1,2021.2.3,60.02094731055167,
,,sha,9,59,left,0.14606629999980214,pr11,001,2025-04-19_08h02.08.565,task1,2021.2.3,60.02094731055167,
,,sha,9,89,right,0.3651903999998467,pr11,001,2025-04-19_08h02.08.565,task1,2021.2.3,60.02094731055167,
,,sha,9,9,left,0.1821655000003375,pr11,001,2025-04-19_08h02.08.565,task1,2021.2.3,60.02094731055167,
,,sha,19,19,right,1.8070582999998805,pr11,001,2025-04-19_08h02.08.565,task1,2021.2.3,60.02094731055167,
,,sha,19,69,left,0.42522509999980684,pr11,001,2025-04-19_08h02.08.565,task1,2021.2.3,60.02094731055167,
,,sha,19,49,left,0.5521246999996947,pr11,001,2025-04-19_08h02.08.565,task1,2021.2.3,60.02094731055167,
,,sha,19,69,left,0.24161009999988892,pr11,001,2025-04-19_08h02.08.565,task1,2021.2.3,60.02094731055167,
,,sha,19,9,left,1.6115842999997767,pr11,001,2025-04-19_08h02.08.565,task1,2021.2.3,60.02094731055167,
,,sha,19,99,right,0.2509377999995195,pr11,001,2025-04-19_08h02.08.565,task1,2021.2.3,60.02094731055167,
,,sha,19,89,right,0.25499069999932544,pr11,001,2025-04-19_08h02.08.565,task1,2021.2.3,60.02094731055167,
,,sha,19,9,left,0.24722730000030424,pr11,001,2025-04-19_08h02.08.565,task1,2021.2.3,60.02094731055167,
,,sha,19,79,right,1.2766025999999329,pr11,001,2025-04-19_08h02.08.565,task1,2021.2.3,60.02094731055167,
,,sha,19,9,left,0.1373671999999715,pr11,001,2025-04-19_08h02.08.565,task1,2021.2.3,60.02094731055167,
,,sha,19,49,left,0.9650318000003608,pr11,001,2025-04-19_08h02.08.565,task1,2021.2.3,60.02094731055167,
,,sha,19,9,left,0.2467917000003581,pr11,001,2025-04-19_08h02.08.565,task1,2021.2.3,60.02094731055167,
,,sha,19,79,right,0.23069519999990007,pr11,001,2025-04-19_08h02.08.565,task1,2021.2.3,60.02094731055167,
,,sha,19,69,right,0.22422040000037669,pr11,001,2025-04-19_08h02.08.565,task1,2021.2.3,60.02094731055167,
,,sha,19,89,right,0.27010859999973036,pr11,001,2025-04-19_08h02.08.565,task1,2021.2.3,60.02094731055167,
,,sha,19,59,right,0.2670011999998678,pr11,001,2025-04-19_08h02.08.565,task1,2021.2.3,60.02094731055167,
,,sha,19,99,right,0.19335810000029596,pr11,001,2025-04-19_08h02.08.565,task1,2021.2.3,60.02094731055167,
,,sha,19,69,right,0.2158132000004116,pr11,001,2025-04-19_08h02.08.565,task1,2021.2.3,60.02094731055167,
,,sha,19,79,right,0.16980710000007093,pr11,001,2025-04-19_08h02.08.565,task1,2021.2.3,60.02094731055167,
,,sha,19,29,left,0.20593100000041886,pr11,001,2025-04-19_08h02.08.565,task1,2021.2.3,60.02094731055167,
,,sha,19,49,left,0.6277681999999913,pr11,001,2025-04-19_08h02.08.565,task1,2021.2.3,60.02094731055167,
,,sha,19,19,left,0.24186140000074374,pr11,001,2025-04-19_08h02.08.565,task1,2021.2.3,60.02094731055167,
,,sha,19,29,left,0.10703279999961524,pr11,001,2025-04-19_08h02.08.565,task1,2021.2.3,60.02094731055167,
,,sha,19,59,left,0.7425209000002724,pr11,001,2025-04-19_08h02.08.565,task1,2021.2.3,60.02094731055167,
,,sha,19,69,right,0.2918195000002015,pr11,001,2025-04-19_08h02.08.565,task1,2021.2.3,60.02094731055167,
,,sha,19,59,right,0.261484599999676,pr11,001,2025-04-19_08h02.08.565,task1,2021.2.3,60.02094731055167,
,,sha,19,79,right,0.3004165999991528,pr11,001,2025-04-19_08h02.08.565,task1,2021.2.3,60.02094731055167,
,,sha,19,19,left,0.27257060000010824,pr11,001,2025-04-19_08h02.08.565,task1,2021.2.3,60.02094731055167,
,,sha,19,19,left,0.1822623999996722,pr11,001,2025-04-19_08h02.08.565,task1,2021.2.3,60.02094731055167,
,,sha,19,39,left,0.20777069999985542,pr11,001,2025-04-19_08h02.08.565,task1,2021.2.3,60.02094731055167,
,,sha,19,19,left,0.5384994999994888,pr11,001,2025-04-19_08h02.08.565,task1,2021.2.3,60.02094731055167,
,,sha,19,9,left,0.6063206999997419,pr11,001,2025-04-19_08h02.08.565,task1,2021.2.3,60.02094731055167,
,,sha,19,39,left,0.2395862000003035,pr11,001,2025-04-19_08h02.08.565,task1,2021.2.3,60.02094731055167,
,,sha,19,89,right,0.30624819999957253,pr11,001,2025-04-19_08h02.08.565,task1,2021.2.3,60.02094731055167,
,,sha,19,19,left,0.2533577999993213,pr11,001,2025-04-19_08h02.08.565,task1,2021.2.3,60.02094731055167,
,,sha,19,89,right,0.2918948000005912,pr11,001,2025-04-19_08h02.08.565,task1,2021.2.3,60.02094731055167,
,,sha,19,89,right,0.21109479999995528,pr11,001,2025-04-19_08h02.08.565,task1,2021.2.3,60.02094731055167,
,,sha,19,79,right,0.134123400000135,pr11,001,2025-04-19_08h02.08.565,task1,2021.2.3,60.02094731055167,
,,sha,19,49,left,0.22752500000024156,pr11,001,2025-04-19_08h02.08.565,task1,2021.2.3,60.02094731055167,
,,sha,19,99,right,0.11322850000033213,pr11,001,2025-04-19_08h02.08.565,task1,2021.2.3,60.02094731055167,
,,sha,19,99,right,0.2932299000003695,pr11,001,2025-04-19_08h02.08.565,task1,2021.2.3,60.02094731055167,
,,sha,19,79,right,0.43785530000059225,pr11,001,2025-04-19_08h02.08.565,task1,2021.2.3,60.02094731055167,
,,sha,19,79,right,0.09044389999962732,pr11,001,2025-04-19_08h02.08.565,task1,2021.2.3,60.02094731055167,
,,sha,19,49,left,0.1599155999992945,pr11,001,2025-04-19_08h02.08.565,task1,2021.2.3,60.02094731055167,
,,sha,19,29,left,0.5802371999998286,pr11,001,2025-04-19_08h02.08.565,task1,2021.2.3,60.02094731055167,
,,sha,19,49,left,1.346659599999839,pr11,001,2025-04-19_08h02.08.565,task1,2021.2.3,60.02094731055167,
,,sha,19,89,right,0.17757689999962167,pr11,001,2025-04-19_08h02.08.565,task1,2021.2.3,60.02094731055167,
,,sha,19,29,left,0.3671562999998059,pr11,001,2025-04-19_08h02.08.565,task1,2021.2.3,60.02094731055167,
,,sha,19,9,right,0.250756000000365,pr11,001,2025-04-19_08h02.08.565,task1,2021.2.3,60.02094731055167,
,,sha,19,39,right,0.25698060000013356,pr11,001,2025-04-19_08h02.08.565,task1,2021.2.3,60.02094731055167,
,,sha,19,29,right,0.24770420000004378,pr11,001,2025-04-19_08h02.08.565,task1,2021.2.3,60.02094731055167,
,,sha,19,29,left,0.9069171000001006,pr11,001,2025-04-19_08h02.08.565,task1,2021.2.3,60.02094731055167,
,,sha,19,89,right,0.3475975000001199,pr11,001,2025-04-19_08h02.08.565,task1,2021.2.3,60.02094731055167,
,,sha,19,99,right,0.3288105000001451,pr11,001,2025-04-19_08h02.08.565,task1,2021.2.3,60.02094731055167,
,,sha,19,9,left,0.42110130000037316,pr11,001,2025-04-19_08h02.08.565,task1,2021.2.3,60.02094731055167,
,,sha,19,79,right,0.24890570000025036,pr11,001,2025-04-19_08h02.08.565,task1,2021.2.3,60.02094731055167,
,,sha,19,69,right,1.239719100000002,pr11,001,2025-04-19_08h02.08.565,task1,2021.2.3,60.02094731055167,
,,sha,19,9,left,0.11133999999947264,pr11,001,2025-04-19_08h02.08.565,task1,2021.2.3,60.02094731055167,
,,sha,19,19,left,0.783843600000182,pr11,001,2025-04-19_08h02.08.565,task1,2021.2.3,60.02094731055167,
,,sha,19,89,right,0.03828749999956926,pr11,001,2025-04-19_08h02.08.565,task1,2021.2.3,60.02094731055167,
,,sha,19,79,right,0.2559411000002001,pr11,001,2025-04-19_08h02.08.565,task1,2021.2.3,60.02094731055167,
,,sha,19,19,left,0.2338593000004039,pr11,001,2025-04-19_08h02.08.565,task1,2021.2.3,60.02094731055167,
,,sha,19,99,right,0.2256588999998712,pr11,001,2025-04-19_08h02.08.565,task1,2021.2.3,60.02094731055167,
,,sha,19,39,left,0.25127530000008846,pr11,001,2025-04-19_08h02.08.565,task1,2021.2.3,60.02094731055167,
,,sha,19,29,right,0.13802990000021964,pr11,001,2025-04-19_08h02.08.565,task1,2021.2.3,60.02094731055167,
,,sha,19,49,left,2.3462242999994487,pr11,001,2025-04-19_08h02.08.565,task1,2021.2.3,60.02094731055167,
,,sha,19,39,left,0.7458612000000358,pr11,001,2025-04-19_08h02.08.565,task1,2021.2.3,60.02094731055167,
,,sha,19,89,right,0.47068860000035784,pr11,001,2025-04-19_08h02.08.565,task1,2021.2.3,60.02094731055167,
,,sha,19,89,right,0.8849895000003016,pr11,001,2025-04-19_08h02.08.565,task1,2021.2.3,60.02094731055167,
,,sha,19,99,right,1.4933522999999695,pr11,001,2025-04-19_08h02.08.565,task1,2021.2.3,60.02094731055167,
,,sha,19,29,left,0.24588909999965836,pr11,001,2025-04-19_08h02.08.565,task1,2021.2.3,60.02094731055167,
,,sha,19,99,right,0.2706551000001127,pr11,001,2025-04-19_08h02.08.565,task1,2021.2.3,60.02094731055167,
,,sha,19,69,right,0.2759091999996599,pr11,001,2025-04-19_08h02.08.565,task1,2021.2.3,60.02094731055167,
,,sha,19,39,left,0.22761119999995572,pr11,001,2025-04-19_08h02.08.565,task1,2021.2.3,60.02094731055167,
,,sha,19,99,right,0.2798925999995845,pr11,001,2025-04-19_08h02.08.565,task1,2021.2.3,60.02094731055167,
,,sha,19,59,left,0.6589078999995763,pr11,001,2025-04-19_08h02.08.565,task1,2021.2.3,60.02094731055167,
,,sha,19,9,left,0.23289269999986573,pr11,001,2025-04-19_08h02.08.565,task1,2021.2.3,60.02094731055167,
,,sha,19,69,right,0.21764549999988958,pr11,001,2025-04-19_08h02.08.565,task1,2021.2.3,60.02094731055167,
,,sha,19,49,right,0.2631450999997469,pr11,001,2025-04-19_08h02.08.565,task1,2021.2.3,60.02094731055167,
,,sha,19,59,right,0.4626490000000558,pr11,001,2025-04-19_08h02.08.565,task1,2021.2.3,60.02094731055167,
,,sha,19,59,right,0.4046537000003809,pr11,001,2025-04-19_08h02.08.565,task1,2021.2.3,60.02094731055167,
,,sha,19,69,left,0.36044679999940854,pr11,001,2025-04-19_08h02.08.565,task1,2021.2.3,60.02094731055167,
,,sha,19,49,left,0.2833015999995041,pr11,001,2025-04-19_08h02.08.565,task1,2021.2.3,60.02094731055167,
,,sha,19,79,right,0.6444446999994398,pr11,001,2025-04-19_08h02.08.565,task1,2021.2.3,60.02094731055167,
,,sha,19,39,left,0.21598499999981868,pr11,001,2025-04-19_08h02.08.565,task1,2021.2.3,60.02094731055167,
,,sha,19,39,left,0.10176319999936823,pr11,001,2025-04-19_08h02.08.565,task1,2021.2.3,60.02094731055167,
,,sha,19,29,left,0.15122550000069168,pr11,001,2025-04-19_08h02.08.565,task1,2021.2.3,60.02094731055167,
,,sha,19,19,left,0.8889439000004131,pr11,001,2025-04-19_08h02.08.565,task1,2021.2.3,60.02094731055167,
,,sha,19,19,left,0.3087054999996326,pr11,001,2025-04-19_08h02.08.565,task1,2021.2.3,60.02094731055167,
,,sha,19,69,right,0.18729510000048322,pr11,001,2025-04-19_08h02.08.565,task1,2021.2.3,60.02094731055167,
,,sha,19,29,left,0.3238971999999194,pr11,001,2025-04-19_08h02.08.565,task1,2021.2.3,60.02094731055167,
,,sha,19,9,left,0.5640940000002956,pr11,001,2025-04-19_08h02.08.565,task1,2021.2.3,60.02094731055167,
,,sha,19,59,left,1.4360655000000406,pr11,001,2025-04-19_08h02.08.565,task1,2021.2.3,60.02094731055167,
,,sha,19,59,left,0.43223589999979595,pr11,001,2025-04-19_08h02.08.565,task1,2021.2.3,60.02094731055167,
,,sha,19,59,left,0.3515145000001212,pr11,001,2025-04-19_08h02.08.565,task1,2021.2.3,60.02094731055167,
,,sha,19,99,right,0.22554050000053394,pr11,001,2025-04-19_08h02.08.565,task1,2021.2.3,60.02094731055167,
,,sha,19,49,right,0.6466801999995369,pr11,001,2025-04-19_08h02.08.565,task1,2021.2.3,60.02094731055167,
,,sha,19,39,left,0.33964300000025105,pr11,001,2025-04-19_08h02.08.565,task1,2021.2.3,60.02094731055167,
,,sha,19,39,left,0.3565091000000393,pr11,001,2025-04-19_08h02.08.565,task1,2021.2.3,60.02094731055167,
,,sha,19,59,left,0.1913739000001442,pr11,001,2025-04-19_08h02.08.565,task1,2021.2.3,60.02094731055167,
